id,timestamp,acc_x,acc_y,acc_z,gyro_x,gyro_y,gyro_z
0,1715847738.3902595,-0.09791915,0.49551728,0.41963607,0.4217112,-1.0828403,0.19574217
1,1715847738.3913314,0.21103896,0.38587716,0.8675978,0.14793848,0.004793686,0.07643266
2,1715847738.392505,0.87449616,0.92217374,1.2967572,0.8668582,-1.3779184,-0.90467507
3,1715847738.3935895,0.8911009,0.866438,1.3175743,1.3057468,-1.032773,-1.3701952
4,1715847738.3946517,0.6079656,0.76168156,1.5190898,1.3057468,-1.032773,-1.3701952
5,1715847738.3957145,0.6079656,0.76168156,1.5190898,2.4519703,-2.593384,-2.1222713
6,1715847738.3967774,0.6079656,0.76168156,1.5190898,2.4519703,-2.593384,-2.1222713
7,1715847738.3978734,0.6079656,0.76168156,1.5190898,2.4519703,-2.593384,-2.1222713
8,1715847738.3989682,0.6079656,0.76168156,1.5190898,2.4519703,-2.593384,-2.1222713
9,1715847738.400056,0.6572915,0.7423297,1.6270818,2.8567705,-2.7190852,-2.225602
10,1715847738.4011552,0.6572915,0.7423297,1.6270818,2.8567705,-2.7190852,-2.225602
11,1715847738.4022176,0.6504542,0.7578356,1.6958815,3.133739,-2.8746135,-2.3086925
12,1715847738.4032583,0.6504542,0.7578356,1.6958815,3.133739,-2.8746135,-2.3086925
13,1715847738.4043539,0.6504542,0.7578356,1.6958815,3.133739,-2.8746135,-2.3086925
14,1715847738.4054463,0.6504542,0.7578356,1.6958815,3.133739,-2.8746135,-2.3086925
15,1715847738.4065092,0.6504542,0.7578356,1.6958815,3.133739,-2.8746135,-2.3086925
16,1715847738.4075744,0.6504542,0.7578356,1.6958815,3.133739,-2.8746135,-2.3086925
17,1715847738.4087338,0.6504542,0.7578356,1.6958815,3.133739,-2.8746135,-2.3086925
18,1715847738.4098053,0.6504542,0.7578356,1.6958815,3.133739,-2.8746135,-2.3086925
19,1715847738.4108684,0.6504542,0.7578356,1.6958815,3.133739,-2.8746135,-2.3086925
20,1715847738.4119647,0.6504542,0.7578356,1.6958815,3.133739,-2.8746135,-2.3086925
21,1715847738.413053,0.6504542,0.7578356,1.6958815,3.133739,-2.8746135,-2.3086925
22,1715847738.4141524,0.6504542,0.7578356,1.6958815,3.133739,-2.8746135,-2.3086925
23,1715847738.415259,0.6504542,0.7578356,1.6958815,3.133739,-2.8746135,-2.3086925
24,1715847738.4163537,0.6504542,0.7578356,1.6958815,3.133739,-2.8746135,-2.3086925
25,1715847738.4174607,0.6504542,0.7578356,1.6958815,3.133739,-2.8746135,-2.3086925
26,1715847738.418523,0.63726807,0.7626583,1.7695041,3.4447958,-3.1153631,-2.3981745
27,1715847738.41961,0.63726807,0.7626583,1.7695041,3.4447958,-3.1153631,-2.3981745
28,1715847738.4207046,0.63726807,0.7626583,1.7695041,3.4447958,-3.1153631,-2.3981745
29,1715847738.421799,0.63726807,0.7626583,1.7695041,3.4447958,-3.1153631,-2.3981745
30,1715847738.4228976,0.6937364,0.7495943,1.7690157,3.4447958,-3.1153631,-2.3981745
31,1715847738.4239945,0.6937364,0.7495943,1.7690157,4.0221686,-3.555317,-2.6527724
32,1715847738.4250884,0.6937364,0.7495943,1.7690157,4.0221686,-3.555317,-2.6527724
33,1715847738.4261801,0.6937364,0.7495943,1.7690157,4.0221686,-3.555317,-2.6527724
34,1715847738.4272647,0.6937364,0.7495943,1.7690157,4.0221686,-3.555317,-2.6527724
35,1715847738.428357,0.6937364,0.7495943,1.7690157,4.0221686,-3.555317,-2.6527724
36,1715847738.4294515,0.6937364,0.7495943,1.7690157,4.0221686,-3.555317,-2.6527724
37,1715847738.4305477,0.6937364,0.7495943,1.7690157,4.0221686,-3.555317,-2.6527724
38,1715847738.4316368,0.6937364,0.7495943,1.7690157,4.0221686,-3.555317,-2.6527724
39,1715847738.432728,0.6937364,0.7495943,1.7690157,4.0221686,-3.555317,-2.6527724
40,1715847738.4338214,0.67029446,0.7209633,1.5897821,4.3939457,-3.6756918,-2.913762
41,1715847738.4348853,0.67029446,0.7209633,1.5897821,4.3939457,-3.6756918,-2.913762
42,1715847738.4359806,0.67029446,0.7209633,1.5897821,4.3939457,-3.6756918,-2.913762
43,1715847738.437084,0.67029446,0.7209633,1.5897821,4.3939457,-3.6756918,-2.913762
44,1715847738.4381819,0.67029446,0.7209633,1.5897821,4.3939457,-3.6756918,-2.913762
45,1715847738.439258,0.67029446,0.7209633,1.5897821,4.3939457,-3.6756918,-2.913762
46,1715847738.4403536,0.67029446,0.7209633,1.5897821,4.3939457,-3.6756918,-2.913762
47,1715847738.4414485,0.67029446,0.7209633,1.5897821,4.3939457,-3.6756918,-2.913762
48,1715847738.4425445,0.67029446,0.7209633,1.5897821,4.3939457,-3.6756918,-2.913762
49,1715847738.4436388,0.67029446,0.7209633,1.5897821,4.3939457,-3.6756918,-2.913762
50,1715847738.4447336,0.67029446,0.7209633,1.5897821,4.3939457,-3.6756918,-2.913762
51,1715847738.4458287,0.67029446,0.7209633,1.5897821,4.3939457,-3.6756918,-2.913762
52,1715847738.4469252,0.67029446,0.7209633,1.5897821,4.3939457,-3.6756918,-2.913762
53,1715847738.4480205,0.67029446,0.7209633,1.5897821,4.3939457,-3.6756918,-2.913762
54,1715847738.449115,0.67029446,0.7209633,1.5897821,4.3939457,-3.6756918,-2.913762
55,1715847738.4502099,0.67029446,0.7209633,1.5897821,4.3939457,-3.6756918,-2.913762
56,1715847738.4512649,0.67029446,0.7209633,1.5897821,4.3939457,-3.6756918,-2.913762
57,1715847738.4523609,0.67029446,0.7209633,1.5897821,4.3939457,-3.6756918,-2.913762
58,1715847738.4534576,0.67029446,0.7209633,1.5897821,4.3939457,-3.6756918,-2.913762
59,1715847738.4545546,0.67029446,0.7209633,1.5897821,4.3939457,-3.6756918,-2.913762
60,1715847738.4556491,0.67029446,0.7209633,1.5897821,4.3939457,-3.6756918,-2.913762
61,1715847738.4567437,0.67029446,0.7209633,1.5897821,4.3939457,-3.6756918,-2.913762
62,1715847738.457847,0.67029446,0.7209633,1.5897821,4.3939457,-3.6756918,-2.913762
63,1715847738.458942,0.67029446,0.7209633,1.5897821,4.3939457,-3.6756918,-2.913762
64,1715847738.4600372,0.67029446,0.7209633,1.5897821,4.3939457,-3.6756918,-2.913762
65,1715847738.4611382,0.67029446,0.7209633,1.5897821,4.3939457,-3.6756918,-2.913762
66,1715847738.4622355,0.67029446,0.7209633,1.5897821,4.3939457,-3.6756918,-2.913762
67,1715847738.4632576,0.67029446,0.7209633,1.5897821,4.3939457,-3.6756918,-2.913762
68,1715847738.464353,0.67029446,0.7209633,1.5897821,4.3939457,-3.6756918,-2.913762
69,1715847738.465452,0.67029446,0.7209633,1.5897821,4.3939457,-3.6756918,-2.913762
70,1715847738.466544,0.67029446,0.7209633,1.5897821,4.3939457,-3.6756918,-2.913762
71,1715847738.4676375,0.67029446,0.7209633,1.5897821,4.3939457,-3.6756918,-2.913762
72,1715847738.4687004,0.67029446,0.7209633,1.5897821,4.3939457,-3.6756918,-2.913762
73,1715847738.469762,0.67029446,0.7209633,1.5897821,4.3939457,-3.6756918,-2.913762
74,1715847738.4708555,0.67029446,0.7209633,1.5897821,4.3939457,-3.6756918,-2.913762
75,1715847738.4719503,0.67029446,0.7209633,1.5897821,4.3939457,-3.6756918,-2.913762
76,1715847738.4730465,0.67029446,0.7209633,1.5897821,4.3939457,-3.6756918,-2.913762
77,1715847738.4741397,0.67029446,0.7209633,1.5897821,4.3939457,-3.6756918,-2.913762
78,1715847738.4752378,0.67029446,0.7209633,1.5897821,4.3939457,-3.6756918,-2.913762
79,1715847738.4763317,0.6151691,0.7219401,1.4347842,4.3939457,-3.6756918,-2.913762
80,1715847738.477423,0.49600565,1.0482355,1.3892431,4.5100594,-2.9513125,-3.1502507
81,1715847738.4785168,0.49600565,1.0482355,1.3892431,4.5100594,-2.9513125,-3.1502507
82,1715847738.4796154,0.49600565,1.0482355,1.3892431,4.5100594,-2.9513125,-3.1502507
83,1715847738.4807117,0.49600565,1.0482355,1.3892431,4.5100594,-2.9513125,-3.1502507
84,1715847738.4818084,0.49600565,1.0482355,1.3892431,4.5100594,-2.9513125,-3.1502507
85,1715847738.4828715,0.49600565,1.0482355,1.3892431,4.5100594,-2.9513125,-3.1502507
86,1715847738.483957,0.56779677,1.1200266,1.5132294,4.5100594,-2.9513125,-3.1502507
87,1715847738.4850197,0.56779677,1.1200266,1.5132294,4.5952806,-2.9502473,-3.155577
88,1715847738.4861145,0.56779677,1.1200266,1.5132294,4.5952806,-2.9502473,-3.155577
89,1715847738.4872084,0.56779677,1.1200266,1.5132294,4.5952806,-2.9502473,-3.155577
90,1715847738.4883044,0.56779677,1.1200266,1.5132294,4.5952806,-2.9502473,-3.155577
91,1715847738.4893975,0.56779677,1.1200266,1.5132294,4.5952806,-2.9502473,-3.155577
92,1715847738.4904914,0.56779677,1.1200266,1.5132294,4.5952806,-2.9502473,-3.155577
93,1715847738.4915814,0.56779677,1.1200266,1.5132294,4.5952806,-2.9502473,-3.155577
94,1715847738.4926758,0.56779677,1.1200266,1.5132294,4.5952806,-2.9502473,-3.155577
95,1715847738.493772,0.56779677,1.1200266,1.5132294,4.5952806,-2.9502473,-3.155577
96,1715847738.494866,0.56779677,1.1200266,1.5132294,4.5952806,-2.9502473,-3.155577
97,1715847738.4959297,0.56779677,1.1200266,1.5132294,4.5952806,-2.9502473,-3.155577
98,1715847738.4970236,0.65124786,1.1379743,1.6343464,4.8168554,-3.1366684,-3.2866044
99,1715847738.4981196,0.65124786,1.1379743,1.6343464,4.8168554,-3.1366684,-3.2866044
100,1715847738.4992015,0.65124786,1.1379743,1.6343464,4.8168554,-3.1366684,-3.2866044
101,1715847738.5003111,0.65124786,1.1379743,1.6343464,4.8168554,-3.1366684,-3.2866044
102,1715847738.5013983,0.65124786,1.1379743,1.6343464,4.8168554,-3.1366684,-3.2866044
103,1715847738.502495,0.65124786,1.1379743,1.6343464,4.8168554,-3.1366684,-3.2866044
104,1715847738.5035572,0.65124786,1.1379743,1.6343464,4.8168554,-3.1366684,-3.2866044
105,1715847738.504652,0.65124786,1.1379743,1.6343464,4.8168554,-3.1366684,-3.2866044
106,1715847738.5057135,0.65124786,1.1379743,1.6343464,4.8168554,-3.1366684,-3.2866044
107,1715847738.5068066,0.7201086,1.0967677,1.6265934,5.1002154,-3.405115,-3.507114
108,1715847738.5079002,0.7201086,1.0967677,1.6265934,5.1002154,-3.405115,-3.507114
109,1715847738.508997,0.7201086,1.0967677,1.6265934,5.1002154,-3.405115,-3.507114
110,1715847738.510093,0.7201086,1.0967677,1.6265934,5.1002154,-3.405115,-3.507114
111,1715847738.5111883,0.7201086,1.0967677,1.6265934,5.1002154,-3.405115,-3.507114
112,1715847738.512285,0.7201086,1.0967677,1.6265934,5.1002154,-3.405115,-3.507114
113,1715847738.5133793,0.7201086,1.0967677,1.6265934,5.1002154,-3.405115,-3.507114
114,1715847738.5144734,0.7201086,1.0967677,1.6265934,5.1002154,-3.405115,-3.507114
115,1715847738.5155628,0.7201086,1.0967677,1.6265934,5.1002154,-3.405115,-3.507114
116,1715847738.5166245,0.7605827,1.0186888,1.5757413,5.271723,-3.5862098,-3.713775
117,1715847738.517718,0.7605827,1.0186888,1.5757413,5.271723,-3.5862098,-3.713775
118,1715847738.5188146,0.7605827,1.0186888,1.5757413,5.271723,-3.5862098,-3.713775
119,1715847738.5199096,0.7605827,1.0186888,1.5757413,5.271723,-3.5862098,-3.713775
120,1715847738.5209773,0.7605827,1.0186888,1.5757413,5.271723,-3.5862098,-3.713775
121,1715847738.5220478,0.8416529,0.9362756,1.4275196,5.3633356,-3.850395,-4.1196404
122,1715847738.5231054,0.8416529,0.9362756,1.4275196,5.3633356,-3.850395,-4.1196404
123,1715847738.5242085,0.8416529,0.9362756,1.4275196,5.3633356,-3.850395,-4.1196404
124,1715847738.5253034,0.8416529,0.9362756,1.4275196,5.3633356,-3.850395,-4.1196404
125,1715847738.526397,0.8416529,0.9362756,1.4275196,5.3633356,-3.850395,-4.1196404
126,1715847738.5274582,0.8416529,0.9362756,1.4275196,5.3633356,-3.850395,-4.1196404
127,1715847738.5285532,0.8416529,0.9362756,1.4275196,5.3633356,-3.850395,-4.1196404
128,1715847738.529653,0.8416529,0.9362756,1.4275196,5.3633356,-3.850395,-4.1196404
129,1715847738.53075,0.8416529,0.9362756,1.4275196,5.3633356,-3.850395,-4.1196404
130,1715847738.5318527,0.8416529,0.9362756,1.4275196,5.3633356,-3.850395,-4.1196404
131,1715847738.5329468,0.8416529,0.9362756,1.4275196,5.3633356,-3.850395,-4.1196404
132,1715847738.5340114,0.9109411,0.8373186,1.3190393,5.3633356,-3.850395,-4.1196404
133,1715847738.5350745,0.9109411,0.8373186,1.3190393,5.3633356,-3.850395,-4.1196404
134,1715847738.5361695,0.9109411,0.8373186,1.3190393,5.3633356,-3.850395,-4.1196404
135,1715847738.537263,0.9109411,0.8373186,1.3190393,5.3633356,-3.850395,-4.1196404
136,1715847738.5383534,0.9109411,0.8373186,1.3190393,5.3633356,-3.850395,-4.1196404
137,1715847738.5394166,0.9109411,0.8373186,1.3190393,5.3633356,-3.850395,-4.1196404
138,1715847738.5405111,0.9109411,0.8373186,1.3190393,5.3633356,-3.850395,-4.1196404
139,1715847738.5416102,0.9109411,0.8373186,1.3190393,5.3633356,-3.850395,-4.1196404
140,1715847738.5427155,0.9109411,0.8373186,1.3190393,5.3633356,-3.850395,-4.1196404
141,1715847738.5438118,0.9109411,0.8373186,1.3190393,5.3633356,-3.850395,-4.1196404
142,1715847738.5449057,0.9109411,0.8373186,1.3190393,5.3633356,-3.850395,-4.1196404
143,1715847738.5459692,0.9109411,0.8373186,1.3190393,5.3633356,-3.850395,-4.1196404
144,1715847738.5470686,0.9109411,0.8373186,1.3190393,5.3633356,-3.850395,-4.1196404
145,1715847738.548166,0.9109411,0.8373186,1.3190393,5.3633356,-3.850395,-4.1196404
146,1715847738.5492601,0.9109411,0.8373186,1.3190393,5.3633356,-3.850395,-4.1196404
147,1715847738.5503538,0.9109411,0.8373186,1.3190393,5.3633356,-3.850395,-4.1196404
148,1715847738.5514176,0.9109411,0.8373186,1.3190393,5.3633356,-3.850395,-4.1196404
149,1715847738.5525193,0.9109411,0.8373186,1.3190393,5.3633356,-3.850395,-4.1196404
150,1715847738.553614,0.9109411,0.8373186,1.3190393,5.3633356,-3.850395,-4.1196404
151,1715847738.5547085,0.9109411,0.8373186,1.3190393,5.3633356,-3.850395,-4.1196404
152,1715847738.5558054,0.9109411,0.8373186,1.3190393,5.3633356,-3.850395,-4.1196404
153,1715847738.5569,0.9109411,0.8373186,1.3190393,5.3633356,-3.850395,-4.1196404
154,1715847738.5579937,0.9109411,0.8373186,1.3190393,5.3633356,-3.850395,-4.1196404
155,1715847738.5590904,0.9109411,0.8373186,1.3190393,5.3633356,-3.850395,-4.1196404
156,1715847738.5601523,0.9929271,0.5745119,1.3209318,4.51978,-3.643734,-4.935632
157,1715847738.5612466,0.9929271,0.5745119,1.3209318,4.51978,-3.643734,-4.935632
158,1715847738.5623355,0.9929271,0.5745119,1.3209318,4.51978,-3.643734,-4.935632
159,1715847738.5633974,0.9929271,0.5745119,1.3209318,4.51978,-3.643734,-4.935632
160,1715847738.564467,0.9929271,0.5745119,1.3209318,4.51978,-3.643734,-4.935632
161,1715847738.565562,0.9929271,0.5745119,1.3209318,4.51978,-3.643734,-4.935632
162,1715847738.5666234,0.94408953,0.38831905,1.411037,4.51978,-3.643734,-4.935632
163,1715847738.5677173,0.94408953,0.38831905,1.411037,4.51978,-3.643734,-4.935632
164,1715847738.5688128,0.94408953,0.38831905,1.411037,4.51978,-3.643734,-4.935632
165,1715847738.5698757,0.94408953,0.38831905,1.411037,4.51978,-3.643734,-4.935632
166,1715847738.57097,0.94408953,0.38831905,1.411037,4.51978,-3.643734,-4.935632
167,1715847738.5720658,0.94408953,0.38831905,1.411037,4.51978,-3.643734,-4.935632
168,1715847738.57316,0.94408953,0.38831905,1.411037,4.51978,-3.643734,-4.935632
169,1715847738.5742211,0.94408953,0.38831905,1.411037,4.51978,-3.643734,-4.935632
170,1715847738.575282,0.7971498,0.12648907,1.446383,4.250135,-3.0312073,-5.136967
171,1715847738.5763397,0.7971498,0.12648907,1.446383,4.250135,-3.0312073,-5.136967
172,1715847738.5773985,0.7971498,0.12648907,1.446383,4.250135,-3.0312073,-5.136967
173,1715847738.578467,0.7971498,0.12648907,1.446383,4.1990023,-2.0746007,-5.274386
174,1715847738.5795548,0.7971498,0.12648907,1.446383,4.1990023,-2.0746007,-5.274386
175,1715847738.580649,0.7971498,0.12648907,1.446383,4.1990023,-2.0746007,-5.274386
176,1715847738.5817118,0.7971498,0.12648907,1.446383,4.1990023,-2.0746007,-5.274386
177,1715847738.5827978,0.7971498,0.12648907,1.446383,4.1990023,-2.0746007,-5.274386
178,1715847738.5838916,0.7971498,0.12648907,1.446383,4.1990023,-2.0746007,-5.274386
179,1715847738.584973,0.7971498,0.12648907,1.446383,4.1990023,-2.0746007,-5.274386
180,1715847738.5860684,0.7971498,0.12648907,1.446383,4.1990023,-2.0746007,-5.274386
181,1715847738.5871644,0.7971498,0.12648907,1.446383,4.1990023,-2.0746007,-5.274386
182,1715847738.588258,0.7971498,0.12648907,1.446383,4.1990023,-2.0746007,-5.274386
183,1715847738.58932,0.7971498,0.12648907,1.446383,4.1990023,-2.0746007,-5.274386
184,1715847738.5904167,0.7971498,0.12648907,1.446383,4.1990023,-2.0746007,-5.274386
185,1715847738.5915031,0.7971498,0.12648907,1.446383,4.1990023,-2.0746007,-5.274386
186,1715847738.5925968,0.7971498,0.12648907,1.446383,4.1990023,-2.0746007,-5.274386
187,1715847738.5936928,0.7971498,0.12648907,1.446383,4.1990023,-2.0746007,-5.274386
188,1715847738.5947866,0.7971498,0.12648907,1.446383,4.1990023,-2.0746007,-5.274386
189,1715847738.595893,0.7971498,0.12648907,1.446383,4.1990023,-2.0746007,-5.274386
190,1715847738.5969882,0.7971498,0.12648907,1.446383,4.1990023,-2.0746007,-5.274386
191,1715847738.5980506,0.49014518,-0.23863214,1.1533581,4.5579963,-0.84635186,-5.120988
192,1715847738.599144,0.49014518,-0.23863214,1.1533581,4.5579963,-0.84635186,-5.120988
193,1715847738.600238,0.49014518,-0.23863214,1.1533581,4.5579963,-0.84635186,-5.120988
194,1715847738.6013215,0.49014518,-0.23863214,1.1533581,4.5579963,-0.84635186,-5.120988
195,1715847738.6024172,0.49014518,-0.23863214,1.1533581,4.5579963,-0.84635186,-5.120988
196,1715847738.6035092,0.49014518,-0.23863214,1.1533581,4.5579963,-0.84635186,-5.120988
197,1715847738.604605,0.49014518,-0.23863214,1.1533581,4.5579963,-0.84635186,-5.120988
198,1715847738.6056676,0.39442372,-0.34338853,0.9514152,4.5579963,-0.84635186,-5.120988
199,1715847738.6067648,0.39442372,-0.34338853,0.9514152,4.706068,-0.53742546,-4.996352
200,1715847738.6078582,0.39442372,-0.34338853,0.9514152,4.706068,-0.53742546,-4.996352
201,1715847738.60892,0.39442372,-0.34338853,0.9514152,4.706068,-0.53742546,-4.996352
202,1715847738.6100144,0.39442372,-0.34338853,0.9514152,4.706068,-0.53742546,-4.996352
203,1715847738.6111104,0.39442372,-0.34338853,0.9514152,4.706068,-0.53742546,-4.996352
204,1715847738.612208,0.39442372,-0.34338853,0.9514152,4.706068,-0.53742546,-4.996352
205,1715847738.6132853,0.39442372,-0.34338853,0.9514152,4.706068,-0.53742546,-4.996352
206,1715847738.6143851,0.39442372,-0.34338853,0.9514152,4.706068,-0.53742546,-4.996352
207,1715847738.6154497,0.39442372,-0.34338853,0.9514152,4.706068,-0.53742546,-4.996352
208,1715847738.6165457,0.2889958,-0.4834911,0.6748119,4.858401,-0.2881538,-4.8450847
209,1715847738.6176403,0.2889958,-0.4834911,0.6748119,4.858401,-0.2881538,-4.8450847
210,1715847738.61877,0.2889958,-0.4834911,0.6748119,4.858401,-0.2881538,-4.8450847
211,1715847738.6198876,0.2889958,-0.4834911,0.6748119,4.858401,-0.2881538,-4.8450847
212,1715847738.6209836,0.2889958,-0.4834911,0.6748119,4.858401,-0.2881538,-4.8450847
213,1715847738.6220777,0.2889958,-0.4834911,0.6748119,4.858401,-0.2881538,-4.8450847
214,1715847738.62314,0.2889958,-0.4834911,0.6748119,4.858401,-0.2881538,-4.8450847
215,1715847738.624236,0.20853604,-0.6459367,0.3682346,4.984102,-0.16245268,-4.760929
216,1715847738.6253312,0.20853604,-0.6459367,0.3682346,4.984102,-0.16245268,-4.760929
217,1715847738.6264281,0.20853604,-0.6459367,0.3682346,4.984102,-0.16245268,-4.760929
218,1715847738.6275203,0.20853604,-0.6459367,0.3682346,4.984102,-0.16245268,-4.760929
219,1715847738.6286154,0.20853604,-0.6459367,0.3682346,4.984102,-0.16245268,-4.760929
220,1715847738.629714,0.20853604,-0.6459367,0.3682346,4.984102,-0.16245268,-4.760929
221,1715847738.6308155,0.20853604,-0.6459367,0.3682346,4.984102,-0.16245268,-4.760929
222,1715847738.6319118,0.07136377,-0.8020946,0.019046618,5.0405607,-0.09108003,-4.72471
223,1715847738.6330068,0.07136377,-0.8020946,0.019046618,5.0405607,-0.09108003,-4.72471
224,1715847738.6341028,0.07136377,-0.8020946,0.019046618,5.0405607,-0.09108003,-4.72471
225,1715847738.6351898,0.07136377,-0.8020946,0.019046618,5.0405607,-0.09108003,-4.72471
226,1715847738.636285,0.07136377,-0.8020946,0.019046618,5.0405607,-0.09108003,-4.72471
227,1715847738.637383,0.07136377,-0.8020946,0.019046618,5.0405607,-0.09108003,-4.72471
228,1715847738.638482,0.07136377,-0.8020946,0.019046618,5.0405607,-0.09108003,-4.72471
229,1715847738.6395772,0.07136377,-0.8020946,0.019046618,5.0405607,-0.09108003,-4.72471
230,1715847738.6406689,0.07136377,-0.8020946,0.019046618,5.0405607,-0.09108003,-4.72471
231,1715847738.6417637,0.07136377,-0.8020946,0.019046618,5.0405607,-0.09108003,-4.72471
232,1715847738.642858,0.07136377,-0.8020946,0.019046618,4.9510784,-0.14221267,-4.66399
233,1715847738.6439228,0.07136377,-0.8020946,0.019046618,4.9510784,-0.14221267,-4.66399
234,1715847738.6450214,0.07136377,-0.8020946,0.019046618,4.9510784,-0.14221267,-4.66399
235,1715847738.6461172,0.07136377,-0.8020946,0.019046618,4.9510784,-0.14221267,-4.66399
236,1715847738.647205,0.07136377,-0.8020946,0.019046618,4.9510784,-0.14221267,-4.66399
237,1715847738.6482992,-0.13711123,-0.9242493,-0.35730723,4.9510784,-0.14221267,-4.66399
238,1715847738.6494005,-0.13711123,-0.9242493,-0.35730723,4.9510784,-0.14221267,-4.66399
239,1715847738.650495,-0.13711123,-0.9242493,-0.35730723,4.9510784,-0.14221267,-4.66399
240,1715847738.6515565,-0.13711123,-0.9242493,-0.35730723,4.9510784,-0.14221267,-4.66399
241,1715847738.6526515,-0.13711123,-0.9242493,-0.35730723,4.9510784,-0.14221267,-4.66399
242,1715847738.653745,-0.13711123,-0.9242493,-0.35730723,4.9510784,-0.14221267,-4.66399
243,1715847738.654831,-0.13711123,-0.9242493,-0.35730723,4.6773057,-0.11771162,-4.54255
244,1715847738.6559243,-0.13711123,-0.9242493,-0.35730723,4.6773057,-0.11771162,-4.54255
245,1715847738.6570191,-0.13711123,-0.9242493,-0.35730723,4.6773057,-0.11771162,-4.54255
246,1715847738.6581123,-0.13711123,-0.9242493,-0.35730723,4.6773057,-0.11771162,-4.54255
247,1715847738.6592057,-0.13711123,-0.9242493,-0.35730723,4.6773057,-0.11771162,-4.54255
248,1715847738.6602995,-0.13711123,-0.9242493,-0.35730723,4.6773057,-0.11771162,-4.54255
249,1715847738.6613941,-0.13711123,-0.9242493,-0.35730723,4.6773057,-0.11771162,-4.54255
250,1715847738.6624875,-0.13711123,-0.9242493,-0.35730723,4.6773057,-0.11771162,-4.54255
251,1715847738.663572,-0.13711123,-0.9242493,-0.35730723,4.6773057,-0.11771162,-4.54255
252,1715847738.66463,-0.13711123,-0.9242493,-0.35730723,4.6773057,-0.11771162,-4.54255
253,1715847738.6656868,-0.13711123,-0.9242493,-0.35730723,4.6773057,-0.11771162,-4.54255
254,1715847738.6667786,-0.13711123,-0.9242493,-0.35730723,4.6773057,-0.11771162,-4.54255
255,1715847738.667872,-0.13711123,-0.9242493,-0.35730723,4.6773057,-0.11771162,-4.54255
256,1715847738.6689663,-0.13711123,-0.9242493,-0.35730723,4.6773057,-0.11771162,-4.54255
257,1715847738.6700332,-0.13711123,-0.9242493,-0.35730723,4.6773057,-0.11771162,-4.54255
258,1715847738.671131,-0.13711123,-0.9242493,-0.35730723,4.6773057,-0.11771162,-4.54255
259,1715847738.6722252,-0.13711123,-0.9242493,-0.35730723,4.6773057,-0.11771162,-4.54255
260,1715847738.6733189,-0.13711123,-0.9242493,-0.35730723,4.6773057,-0.11771162,-4.54255
261,1715847738.6744149,-0.13711123,-0.9242493,-0.35730723,4.6773057,-0.11771162,-4.54255
262,1715847738.6755009,-0.13711123,-0.9242493,-0.35730723,4.6773057,-0.11771162,-4.54255
263,1715847738.6765983,-0.13711123,-0.9242493,-0.35730723,4.6773057,-0.11771162,-4.54255
264,1715847738.6776922,-0.13711123,-0.9242493,-0.35730723,4.6773057,-0.11771162,-4.54255
265,1715847738.678788,-0.13711123,-0.9242493,-0.35730723,4.6773057,-0.11771162,-4.54255
266,1715847738.6798816,-0.13711123,-0.9242493,-0.35730723,4.6773057,-0.11771162,-4.54255
267,1715847738.6809874,-0.13711123,-0.9242493,-0.35730723,4.6773057,-0.11771162,-4.54255
268,1715847738.682083,-0.13711123,-0.9242493,-0.35730723,4.6773057,-0.11771162,-4.54255
269,1715847738.6831796,-0.13711123,-0.9242493,-0.35730723,4.6773057,-0.11771162,-4.54255
270,1715847738.6842725,-0.13711123,-0.9242493,-0.35730723,4.6773057,-0.11771162,-4.54255
271,1715847738.6853676,-0.13711123,-0.9242493,-0.35730723,4.6773057,-0.11771162,-4.54255
272,1715847738.6864624,-0.13711123,-0.9242493,-0.35730723,4.6773057,-0.11771162,-4.54255
273,1715847738.6875527,-0.13711123,-0.9242493,-0.35730723,4.6773057,-0.11771162,-4.54255
274,1715847738.6886468,-0.13711123,-0.9242493,-0.35730723,4.6773057,-0.11771162,-4.54255
275,1715847738.6897328,-0.13711123,-0.9242493,-0.35730723,4.6773057,-0.11771162,-4.54255
276,1715847738.6908314,-0.13711123,-0.9242493,-0.35730723,4.6773057,-0.11771162,-4.54255
277,1715847738.6919332,-0.13711123,-0.9242493,-0.35730723,4.6773057,-0.11771162,-4.54255
278,1715847738.6930313,-0.13711123,-0.9242493,-0.35730723,4.6773057,-0.11771162,-4.54255
279,1715847738.6941273,-0.13711123,-0.9242493,-0.35730723,4.6773057,-0.11771162,-4.54255
280,1715847738.6952271,-0.13711123,-0.9242493,-0.35730723,4.6773057,-0.11771162,-4.54255
281,1715847738.696295,-0.614986,-1.2244166,-1.1351662,4.2586575,0.19867165,-4.315649
282,1715847738.6973894,-1.3125683,-1.4392406,-1.8064374,2.4583619,1.3715268,-2.8551726
283,1715847738.6984806,-1.3125683,-1.4392406,-1.8064374,2.4583619,1.3715268,-2.8551726
284,1715847738.6995418,-1.3125683,-1.4392406,-1.8064374,2.4583619,1.3715268,-2.8551726
285,1715847738.700635,-1.3125683,-1.4392406,-1.8064374,2.4583619,1.3715268,-2.8551726
286,1715847738.7016969,-1.3125683,-1.4392406,-1.8064374,2.4583619,1.3715268,-2.8551726
287,1715847738.702794,-1.3125683,-1.4392406,-1.8064374,2.4583619,1.3715268,-2.8551726
288,1715847738.7038884,-1.3125683,-1.4392406,-1.8064374,2.4583619,1.3715268,-2.8551726
289,1715847738.704949,-1.3896705,-1.4275806,-1.722681,2.4583619,1.3715268,-2.8551726
290,1715847738.7060437,-1.3896705,-1.4275806,-1.722681,1.977928,1.4120069,-2.165947
291,1715847738.7071404,-1.3896705,-1.4275806,-1.722681,1.977928,1.4120069,-2.165947
292,1715847738.7082334,-1.3896705,-1.4275806,-1.722681,1.977928,1.4120069,-2.165947
293,1715847738.709328,-1.3896705,-1.4275806,-1.722681,1.977928,1.4120069,-2.165947
294,1715847738.7104218,-1.3896705,-1.4275806,-1.722681,1.977928,1.4120069,-2.165947
295,1715847738.7115088,-1.3896705,-1.4275806,-1.722681,1.977928,1.4120069,-2.165947
296,1715847738.7126088,-1.3896705,-1.4275806,-1.722681,1.977928,1.4120069,-2.165947
297,1715847738.7136717,-1.3896705,-1.4275806,-1.722681,1.977928,1.4120069,-2.165947
298,1715847738.7147374,-1.3896705,-1.4275806,-1.722681,1.977928,1.4120069,-2.165947
299,1715847738.715801,-1.3896705,-1.4275806,-1.722681,1.977928,1.4120069,-2.165947
300,1715847738.7168605,-1.3896705,-1.4275806,-1.722681,1.977928,1.4120069,-2.165947
301,1715847738.7179215,-1.3218474,-1.4212928,-1.7478324,1.7425048,1.4077457,-1.6386416
302,1715847738.7190206,-1.3218474,-1.4212928,-1.7478324,1.7425048,1.4077457,-1.6386416
303,1715847738.7201116,-1.3218474,-1.4212928,-1.7478324,1.7425048,1.4077457,-1.6386416
304,1715847738.721211,-1.1529309,-1.3713565,-1.8354957,1.7425048,1.4077457,-1.6386416
305,1715847738.7222977,-1.1529309,-1.3713565,-1.8354957,1.4069468,1.2479563,-1.0932267
306,1715847738.7233593,-1.1529309,-1.3713565,-1.8354957,1.4069468,1.2479563,-1.0932267
307,1715847738.724453,-1.1529309,-1.3713565,-1.8354957,1.4069468,1.2479563,-1.0932267
308,1715847738.7255461,-1.1529309,-1.3713565,-1.8354957,1.4069468,1.2479563,-1.0932267
309,1715847738.7266119,-1.1529309,-1.3713565,-1.8354957,1.4069468,1.2479563,-1.0932267
310,1715847738.7277086,-1.1529309,-1.3713565,-1.8354957,1.4069468,1.2479563,-1.0932267
311,1715847738.7287703,-1.1529309,-1.3713565,-1.8354957,1.4069468,1.2479563,-1.0932267
312,1715847738.7298317,-1.1529309,-1.3713565,-1.8354957,1.4069468,1.2479563,-1.0932267
313,1715847738.730926,-1.1529309,-1.3713565,-1.8354957,1.4069468,1.2479563,-1.0932267
314,1715847738.7320163,-1.1529309,-1.3713565,-1.8354957,1.4069468,1.2479563,-1.0932267
315,1715847738.733103,-1.1529309,-1.3713565,-1.8354957,1.4069468,1.2479563,-1.0932267
316,1715847738.7341976,-1.0098981,-1.3359493,-1.9105833,1.0383656,1.0647309,-0.80880135
317,1715847738.7352586,-1.0098981,-1.3359493,-1.9105833,1.0383656,1.0647309,-0.80880135
318,1715847738.7363455,-1.0098981,-1.3359493,-1.9105833,1.0383656,1.0647309,-0.80880135
319,1715847738.737437,-1.0098981,-1.3359493,-1.9105833,1.0383656,1.0647309,-0.80880135
320,1715847738.738531,-1.0098981,-1.3359493,-1.9105833,1.0383656,1.0647309,-0.80880135
321,1715847738.7396247,-1.0098981,-1.3359493,-1.9105833,1.0383656,1.0647309,-0.80880135
322,1715847738.7407212,-1.0098981,-1.3359493,-1.9105833,1.0383656,1.0647309,-0.80880135
323,1715847738.741809,-1.0098981,-1.3359493,-1.9105833,1.0383656,1.0647309,-0.80880135
324,1715847738.7428963,-0.823461,-1.2530477,-1.8747488,0.079628445,0.8676571,-0.39334854
325,1715847738.74399,-0.823461,-1.2530477,-1.8747488,0.079628445,0.8676571,-0.39334854
326,1715847738.7450833,-0.823461,-1.2530477,-1.8747488,0.079628445,0.8676571,-0.39334854
327,1715847738.746176,-0.823461,-1.2530477,-1.8747488,0.079628445,0.8676571,-0.39334854
328,1715847738.7472615,-0.823461,-1.2530477,-1.8747488,0.079628445,0.8676571,-0.39334854
329,1715847738.7483227,-0.823461,-1.2530477,-1.8747488,0.079628445,0.8676571,-0.39334854
330,1715847738.7494273,-0.823461,-1.2530477,-1.8747488,0.079628445,0.8676571,-0.39334854
331,1715847738.750518,-0.823461,-1.2530477,-1.8747488,0.079628445,0.8676571,-0.39334854
332,1715847738.7515798,-0.823461,-1.2530477,-1.8747488,0.079628445,0.8676571,-0.39334854
333,1715847738.7526789,-0.823461,-1.2530477,-1.8747488,0.079628445,0.8676571,-0.39334854
334,1715847738.7537751,-0.823461,-1.2530477,-1.8747488,0.079628445,0.8676571,-0.39334854
335,1715847738.7548769,-0.823461,-1.2530477,-1.8747488,0.079628445,0.8676571,-0.39334854
336,1715847738.75597,-0.823461,-1.2530477,-1.8747488,0.079628445,0.8676571,-0.39334854
337,1715847738.7570686,-0.823461,-1.2530477,-1.8747488,0.079628445,0.8676571,-0.39334854
338,1715847738.7581635,-0.823461,-1.2530477,-1.8747488,0.079628445,0.8676571,-0.39334854
339,1715847738.7592635,-0.823461,-1.2530477,-1.8747488,0.079628445,0.8676571,-0.39334854
340,1715847738.7603273,-0.823461,-1.2530477,-1.8747488,0.079628445,0.8676571,-0.39334854
341,1715847738.7613955,-0.823461,-1.2530477,-1.8747488,0.079628445,0.8676571,-0.39334854
342,1715847738.762454,-0.823461,-1.2530477,-1.8747488,0.079628445,0.8676571,-0.39334854
343,1715847738.7635126,-0.823461,-1.2530477,-1.8747488,0.079628445,0.8676571,-0.39334854
344,1715847738.764578,-0.823461,-1.2530477,-1.8747488,0.079628445,0.8676571,-0.39334854
345,1715847738.7656403,-0.823461,-1.2530477,-1.8747488,0.079628445,0.8676571,-0.39334854
346,1715847738.7667055,-0.823461,-1.2530477,-1.8747488,0.079628445,0.8676571,-0.39334854
347,1715847738.767772,-0.823461,-1.2530477,-1.8747488,0.079628445,0.8676571,-0.39334854
348,1715847738.7688737,-0.823461,-1.2530477,-1.8747488,0.079628445,0.8676571,-0.39334854
349,1715847738.7699385,-0.823461,-1.2530477,-1.8747488,0.079628445,0.8676571,-0.39334854
350,1715847738.7710364,-0.823461,-1.2530477,-1.8747488,0.079628445,0.8676571,-0.39334854
351,1715847738.7721364,-0.823461,-1.2530477,-1.8747488,0.079628445,0.8676571,-0.39334854
352,1715847738.7732337,-0.823461,-1.2530477,-1.8747488,0.079628445,0.8676571,-0.39334854
353,1715847738.7743285,-0.823461,-1.2530477,-1.8747488,0.079628445,0.8676571,-0.39334854
354,1715847738.7753901,-0.823461,-1.2530477,-1.8747488,0.079628445,0.8676571,-0.39334854
355,1715847738.776493,-0.823461,-1.2530477,-1.8747488,0.079628445,0.8676571,-0.39334854
356,1715847738.77756,-0.62426513,-1.1288784,-1.4272143,-1.3158668,0.6716487,0.40879488
357,1715847738.7786238,-0.49441844,-1.0299826,-1.1041543,-1.3158668,0.6716487,0.40879488
358,1715847738.7797117,-0.49441844,-1.0299826,-1.1041543,-1.3158668,0.6716487,0.40879488
359,1715847738.7808049,-0.49441844,-1.0299826,-1.1041543,-1.3158668,0.6716487,0.40879488
360,1715847738.7818787,-0.49441844,-1.0299826,-1.1041543,-1.3158668,0.6716487,0.40879488
361,1715847738.7829647,-0.49441844,-1.0299826,-1.1041543,-1.5012226,0.5779055,0.615456
362,1715847738.7840264,-0.49441844,-1.0299826,-1.1041543,-1.5012226,0.5779055,0.615456
363,1715847738.785089,-0.4173163,-0.94848496,-0.8857287,-1.5012226,0.5779055,0.615456
364,1715847738.7861845,-0.4173163,-0.94848496,-0.8857287,-1.5012226,0.5779055,0.615456
365,1715847738.787259,-0.4173163,-0.94848496,-0.8857287,-1.5012226,0.5779055,0.615456
366,1715847738.788353,-0.4173163,-0.94848496,-0.8857287,-1.5012226,0.5779055,0.615456
367,1715847738.7894468,-0.4173163,-0.94848496,-0.8857287,-1.5012226,0.5779055,0.615456
368,1715847738.7905426,-0.4173163,-0.94848496,-0.8857287,-1.5012226,0.5779055,0.615456
369,1715847738.7916293,-0.4173163,-0.94848496,-0.8857287,-1.5012226,0.5779055,0.615456
370,1715847738.7927227,-0.4173163,-0.94848496,-0.8857287,-1.5012226,0.5779055,0.615456
371,1715847738.7938244,-0.25035313,-0.8180888,-0.62127376,-1.5012226,0.5779055,0.615456
372,1715847738.79492,-0.25035313,-0.8180888,-0.62127376,-1.7068185,0.3989412,0.95953614
373,1715847738.7960167,-0.25035313,-0.8180888,-0.62127376,-1.7068185,0.3989412,0.95953614
374,1715847738.797117,-0.25035313,-0.8180888,-0.62127376,-1.7068185,0.3989412,0.95953614
375,1715847738.7982104,-0.25035313,-0.8180888,-0.62127376,-1.7068185,0.3989412,0.95953614
376,1715847738.7992594,-0.25035313,-0.8180888,-0.62127376,-1.7068185,0.3989412,0.95953614
377,1715847738.8003542,-0.25035313,-0.8180888,-0.62127376,-1.7068185,0.3989412,0.95953614
378,1715847738.8014166,-0.25035313,-0.8180888,-0.62127376,-1.8943049,0.29774114,1.2088078
379,1715847738.8025157,-0.25035313,-0.8180888,-0.62127376,-1.8943049,0.29774114,1.2088078
380,1715847738.8036127,-0.25035313,-0.8180888,-0.62127376,-1.8943049,0.29774114,1.2088078
381,1715847738.804706,-0.25035313,-0.8180888,-0.62127376,-1.8943049,0.29774114,1.2088078
382,1715847738.8058083,-0.25035313,-0.8180888,-0.62127376,-1.8943049,0.29774114,1.2088078
383,1715847738.8069034,-0.061901506,-0.71577436,-0.49142715,-1.8943049,0.29774114,1.2088078
384,1715847738.8079972,-0.061901506,-0.71577436,-0.49142715,-1.8943049,0.29774114,1.2088078
385,1715847738.8090951,-0.061901506,-0.71577436,-0.49142715,-1.8943049,0.29774114,1.2088078
386,1715847738.8101928,-0.061901506,-0.71577436,-0.49142715,-1.8943049,0.29774114,1.2088078
387,1715847738.8112607,-0.061901506,-0.71577436,-0.49142715,-1.8943049,0.29774114,1.2088078
388,1715847738.8123567,-0.061901506,-0.71577436,-0.49142715,-1.8943049,0.29774114,1.2088078
389,1715847738.8134508,-0.061901506,-0.71577436,-0.49142715,-1.8943049,0.29774114,1.2088078
390,1715847738.8145454,-0.061901506,-0.71577436,-0.49142715,-1.8943049,0.29774114,1.2088078
391,1715847738.815642,-0.061901506,-0.71577436,-0.49142715,-1.8943049,0.29774114,1.2088078
392,1715847738.8167355,-0.061901506,-0.71577436,-0.49142715,-1.8943049,0.29774114,1.2088078
393,1715847738.8178306,-0.061901506,-0.71577436,-0.49142715,-1.8943049,0.29774114,1.2088078
394,1715847738.8189409,-0.061901506,-0.71577436,-0.49142715,-1.8943049,0.29774114,1.2088078
395,1715847738.8200412,-0.061901506,-0.71577436,-0.49142715,-1.8943049,0.29774114,1.2088078
396,1715847738.8211365,-0.061901506,-0.71577436,-0.49142715,-1.8943049,0.29774114,1.2088078
397,1715847738.8222318,-0.061901506,-0.71577436,-0.49142715,-1.8943049,0.29774114,1.2088078
398,1715847738.8232582,-0.061901506,-0.71577436,-0.49142715,-1.8943049,0.29774114,1.2088078
399,1715847738.8243535,-0.061901506,-0.71577436,-0.49142715,-1.8943049,0.29774114,1.2088078
400,1715847738.825447,-0.061901506,-0.71577436,-0.49142715,-1.8943049,0.29774114,1.2088078
401,1715847738.8265436,-0.061901506,-0.71577436,-0.49142715,-1.8943049,0.29774114,1.2088078
402,1715847738.827641,-0.061901506,-0.71577436,-0.49142715,-1.8943049,0.29774114,1.2088078
403,1715847738.828736,-0.061901506,-0.71577436,-0.49142715,-1.8943049,0.29774114,1.2088078
404,1715847738.8298469,0.09865171,-0.6042417,-0.37281314,-1.8943049,0.29774114,1.2088078
405,1715847738.8309422,0.09865171,-0.6042417,-0.37281314,-1.8943049,0.29774114,1.2088078
406,1715847738.8320389,0.18741384,-0.5300698,-0.25609154,-2.4216104,0.24554324,1.4719279
407,1715847738.833136,0.18741384,-0.5300698,-0.25609154,-2.4216104,0.24554324,1.4719279
408,1715847738.83423,0.18741384,-0.5300698,-0.25609154,-2.4216104,0.24554324,1.4719279
409,1715847738.8352587,0.18741384,-0.5300698,-0.25609154,-2.4216104,0.24554324,1.4719279
410,1715847738.836356,0.18741384,-0.5300698,-0.25609154,-2.4216104,0.24554324,1.4719279
411,1715847738.8374472,0.18741384,-0.5300698,-0.25609154,-2.4216104,0.24554324,1.4719279
412,1715847738.8385406,0.18741384,-0.5300698,-0.25609154,-2.4216104,0.24554324,1.4719279
413,1715847738.8396425,0.18741384,-0.5300698,-0.25609154,-2.4216104,0.24554324,1.4719279
414,1715847738.8407044,0.18741384,-0.5300698,-0.25609154,-2.4216104,0.24554324,1.4719279
415,1715847738.841801,0.18741384,-0.5300698,-0.25609154,-2.4216104,0.24554324,1.4719279
416,1715847738.8428955,0.18741384,-0.5300698,-0.25609154,-2.4216104,0.24554324,1.4719279
417,1715847738.8439906,0.18741384,-0.5300698,-0.25609154,-2.4216104,0.24554324,1.4719279
418,1715847738.845087,0.18741384,-0.5300698,-0.25609154,-2.4216104,0.24554324,1.4719279
419,1715847738.8461812,0.18741384,-0.5300698,-0.25609154,-2.4216104,0.24554324,1.4719279
420,1715847738.8472593,0.18741384,-0.5300698,-0.25609154,-2.4216104,0.24554324,1.4719279
421,1715847738.8483572,0.18741384,-0.5300698,-0.25609154,-2.4216104,0.24554324,1.4719279
422,1715847738.8494213,0.18741384,-0.5300698,-0.25609154,-2.4216104,0.24554324,1.4719279
423,1715847738.850516,0.18741384,-0.5300698,-0.25609154,-2.4216104,0.24554324,1.4719279
424,1715847738.8515787,0.18741384,-0.5300698,-0.25609154,-2.4216104,0.24554324,1.4719279
425,1715847738.8526824,0.18741384,-0.5300698,-0.25609154,-2.4216104,0.24554324,1.4719279
426,1715847738.8537781,0.18741384,-0.5300698,-0.25609154,-2.4216104,0.24554324,1.4719279
427,1715847738.854874,0.18741384,-0.5300698,-0.25609154,-2.4216104,0.24554324,1.4719279
428,1715847738.8559694,0.34460947,-0.35358337,0.15463167,-3.1364021,0.49907595,1.8223996
429,1715847738.8570628,0.34460947,-0.35358337,0.15463167,-3.1364021,0.49907595,1.8223996
430,1715847738.8582718,0.34460947,-0.35358337,0.15463167,-3.1364021,0.49907595,1.8223996
431,1715847738.8593342,0.34460947,-0.35358337,0.15463167,-3.1364021,0.49907595,1.8223996
432,1715847738.8604288,0.34460947,-0.35358337,0.15463167,-3.1364021,0.49907595,1.8223996
433,1715847738.861531,0.34460947,-0.35358337,0.15463167,-3.1364021,0.49907595,1.8223996
434,1715847738.8626251,0.34460947,-0.35358337,0.15463167,-3.1364021,0.49907595,1.8223996
435,1715847738.8637123,0.34460947,-0.35358337,0.15463167,-3.1364021,0.49907595,1.8223996
436,1715847738.864813,0.34460947,-0.35358337,0.15463167,-3.1364021,0.49907595,1.8223996
437,1715847738.8659055,0.3714701,-0.33319372,0.20017262,-3.2642338,0.7898929,1.8618144
438,1715847738.8669996,0.3714701,-0.33319372,0.20017262,-3.2642338,0.7898929,1.8618144
439,1715847738.868062,0.3714701,-0.33319372,0.20017262,-3.2642338,0.7898929,1.8618144
440,1715847738.86916,0.3714701,-0.33319372,0.20017262,-3.2642338,0.7898929,1.8618144
441,1715847738.8702564,0.3714701,-0.33319372,0.20017262,-3.2642338,0.7898929,1.8618144
442,1715847738.8713174,0.3714701,-0.33319372,0.20017262,-3.2642338,0.7898929,1.8618144
443,1715847738.8724113,0.3714701,-0.33319372,0.20017262,-3.2642338,0.7898929,1.8618144
444,1715847738.8735063,0.3801998,-0.32592914,0.21952447,-3.4293497,1.0466214,1.8692712
445,1715847738.8746,0.3801998,-0.32592914,0.21952447,-3.4293497,1.0466214,1.8692712
446,1715847738.8756938,0.3801998,-0.32592914,0.21952447,-3.4293497,1.0466214,1.8692712
447,1715847738.8767874,0.3801998,-0.32592914,0.21952447,-3.4293497,1.0466214,1.8692712
448,1715847738.877883,0.3801998,-0.32592914,0.21952447,-3.4293497,1.0466214,1.8692712
449,1715847738.8789775,0.3801998,-0.32592914,0.21952447,-3.4293497,1.0466214,1.8692712
450,1715847738.8800683,0.3801998,-0.32592914,0.21952447,-3.4293497,1.0466214,1.8692712
451,1715847738.8811615,0.3801998,-0.32592914,0.21952447,-3.4293497,1.0466214,1.8692712
452,1715847738.882263,0.3801998,-0.32592914,0.21952447,-3.4293497,1.0466214,1.8692712
453,1715847738.8833249,0.3801998,-0.32592914,0.21952447,-3.4293497,1.0466214,1.8692712
454,1715847738.884421,0.3801998,-0.32592914,0.21952447,-3.4293497,1.0466214,1.8692712
455,1715847738.885484,0.3519351,-0.33221695,0.22727743,-3.605118,1.1563436,1.9054902
456,1715847738.8865793,0.3519351,-0.33221695,0.22727743,-3.605118,1.1563436,1.9054902
457,1715847738.8876767,0.3519351,-0.33221695,0.22727743,-3.605118,1.1563436,1.9054902
458,1715847738.8887734,0.3519351,-0.33221695,0.22727743,-3.605118,1.1563436,1.9054902
459,1715847738.889836,0.3519351,-0.33221695,0.22727743,-3.605118,1.1563436,1.9054902
460,1715847738.8909314,0.28160912,-0.3157343,0.2675073,-3.9119139,1.3917668,1.9438397
461,1715847738.892028,0.28160912,-0.3157343,0.2675073,-3.9119139,1.3917668,1.9438397
462,1715847738.8931265,0.28160912,-0.3157343,0.2675073,-3.9119139,1.3917668,1.9438397
463,1715847738.8942215,0.28160912,-0.3157343,0.2675073,-3.9119139,1.3917668,1.9438397
464,1715847738.895259,0.28160912,-0.3157343,0.2675073,-3.9119139,1.3917668,1.9438397
465,1715847738.8963537,0.28160912,-0.3157343,0.2675073,-3.9119139,1.3917668,1.9438397
466,1715847738.8974488,0.28160912,-0.3157343,0.2675073,-3.9119139,1.3917668,1.9438397
467,1715847738.898514,0.28160912,-0.3157343,0.2675073,-3.9119139,1.3917668,1.9438397
468,1715847738.899653,0.28160912,-0.3157343,0.2675073,-3.9119139,1.3917668,1.9438397
469,1715847738.9007483,0.28160912,-0.3157343,0.2675073,-3.9119139,1.3917668,1.9438397
470,1715847738.9018357,0.28160912,-0.3157343,0.2675073,-3.9119139,1.3917668,1.9438397
471,1715847738.9029315,0.28160912,-0.3157343,0.2675073,-3.9119139,1.3917668,1.9438397
472,1715847738.9040332,0.28160912,-0.3157343,0.2675073,-3.9119139,1.3917668,1.9438397
473,1715847738.9051292,0.28160912,-0.3157343,0.2675073,-3.9119139,1.3917668,1.9438397
474,1715847738.9062266,0.28160912,-0.3157343,0.2675073,-3.9119139,1.3917668,1.9438397
475,1715847738.9072566,0.28160912,-0.3157343,0.2675073,-3.9119139,1.3917668,1.9438397
476,1715847738.908353,0.28160912,-0.3157343,0.2675073,-4.078095,1.5238595,1.9267954
477,1715847738.9094489,0.1839952,-0.28856847,0.37452242,-4.078095,1.5238595,1.9267954
478,1715847738.9105468,0.1839952,-0.28856847,0.37452242,-4.078095,1.5238595,1.9267954
479,1715847738.9116452,0.1839952,-0.28856847,0.37452242,-4.078095,1.5238595,1.9267954
480,1715847738.912742,0.1839952,-0.28856847,0.37452242,-4.078095,1.5238595,1.9267954
481,1715847738.9138381,0.1839952,-0.28856847,0.37452242,-4.078095,1.5238595,1.9267954
482,1715847738.9149318,0.1839952,-0.28856847,0.37452242,-4.078095,1.5238595,1.9267954
483,1715847738.9160275,0.1839952,-0.28856847,0.37452242,-4.078095,1.5238595,1.9267954
484,1715847738.9171233,0.1839952,-0.28856847,0.37452242,-4.078095,1.5238595,1.9267954
485,1715847738.9182005,0.1839952,-0.28856847,0.37452242,-4.078095,1.5238595,1.9267954
486,1715847738.9192286,0.1839952,-0.28856847,0.37452242,-4.078095,1.5238595,1.9267954
487,1715847738.9202936,0.1839952,-0.28856847,0.37452242,-4.078095,1.5238595,1.9267954
488,1715847738.921357,0.1839952,-0.28856847,0.37452242,-4.078095,1.5238595,1.9267954
489,1715847738.9224205,0.1839952,-0.28856847,0.37452242,-4.078095,1.5238595,1.9267954
490,1715847738.9234846,0.1839952,-0.28856847,0.37452242,-4.078095,1.5238595,1.9267954
491,1715847738.9245565,0.1839952,-0.28856847,0.37452242,-4.078095,1.5238595,1.9267954
492,1715847738.925621,0.1839952,-0.28856847,0.37452242,-4.078095,1.5238595,1.9267954
493,1715847738.9266846,0.1839952,-0.28856847,0.37452242,-4.078095,1.5238595,1.9267954
494,1715847738.9277484,0.1839952,-0.28856847,0.37452242,-4.078095,1.5238595,1.9267954
495,1715847738.9288123,0.1839952,-0.28856847,0.37452242,-4.078095,1.5238595,1.9267954
496,1715847738.9298763,0.1839952,-0.28856847,0.37452242,-4.078095,1.5238595,1.9267954
497,1715847738.9309404,0.1839952,-0.28856847,0.37452242,-4.078095,1.5238595,1.9267954
498,1715847738.9320812,0.1839952,-0.28856847,0.37452242,-4.078095,1.5238595,1.9267954
499,1715847738.9331458,0.1839952,-0.28856847,0.37452242,-4.078095,1.5238595,1.9267954
500,1715847738.934209,0.1839952,-0.28856847,0.37452242,-4.078095,1.5238595,1.9267954
501,1715847738.9353313,0.1839952,-0.28856847,0.37452242,-4.078095,1.5238595,1.9267954
502,1715847738.9364014,0.1839952,-0.28856847,0.37452242,-4.078095,1.5238595,1.9267954
503,1715847738.9374678,0.1839952,-0.28856847,0.37452242,-4.078095,1.5238595,1.9267954
504,1715847738.9385326,0.1839952,-0.28856847,0.37452242,-4.078095,1.5238595,1.9267954
505,1715847738.9395974,0.1839952,-0.28856847,0.37452242,-4.078095,1.5238595,1.9267954
506,1715847738.9406624,0.1839952,-0.28856847,0.37452242,-4.078095,1.5238595,1.9267954
507,1715847738.9417272,0.1839952,-0.28856847,0.37452242,-4.078095,1.5238595,1.9267954
508,1715847738.942792,0.1839952,-0.28856847,0.37452242,-4.078095,1.5238595,1.9267954
509,1715847738.9438574,0.1839952,-0.28856847,0.37452242,-4.078095,1.5238595,1.9267954
510,1715847738.9449215,0.1839952,-0.28856847,0.37452242,-4.078095,1.5238595,1.9267954
511,1715847738.9459944,0.1839952,-0.28856847,0.37452242,-4.078095,1.5238595,1.9267954
512,1715847738.9470592,0.1839952,-0.28856847,0.37452242,-4.078095,1.5238595,1.9267954
513,1715847738.9481242,0.1839952,-0.28856847,0.37452242,-4.078095,1.5238595,1.9267954
514,1715847738.94919,0.1839952,-0.28856847,0.37452242,-4.078095,1.5238595,1.9267954
515,1715847738.950256,0.1839952,-0.28856847,0.37452242,-4.078095,1.5238595,1.9267954
516,1715847738.9513206,0.045357812,-0.23912051,0.47042707,-4.121771,1.5355774,1.8959028
517,1715847738.952387,-0.11330295,-0.19016093,0.5580903,-4.0642467,1.4056152,1.896968
518,1715847738.9534516,-0.11330295,-0.19016093,0.5580903,-4.0642467,1.4056152,1.896968
519,1715847738.9545143,-0.11330295,-0.19016093,0.5580903,-4.0642467,1.4056152,1.896968
520,1715847738.9555776,-0.11330295,-0.19016093,0.5580903,-4.0642467,1.4056152,1.896968
521,1715847738.9566414,-0.11330295,-0.19016093,0.5580903,-4.0642467,1.4056152,1.896968
522,1715847738.957705,-0.590262,-0.11983497,0.39149344,-3.8575854,0.70999813,2.4274693
523,1715847738.9587696,-0.590262,-0.11983497,0.39149344,-3.8575854,0.70999813,2.4274693
524,1715847738.9598334,-0.590262,-0.11983497,0.39149344,-3.8575854,0.70999813,2.4274693
525,1715847738.9609025,-0.590262,-0.11983497,0.39149344,-3.8575854,0.70999813,2.4274693
526,1715847738.9619648,-0.590262,-0.11983497,0.39149344,-3.8575854,0.70999813,2.4274693
527,1715847738.9630275,-0.590262,-0.11983497,0.39149344,-3.8575854,0.70999813,2.4274693
528,1715847738.9640906,-0.590262,-0.11983497,0.39149344,-3.8575854,0.70999813,2.4274693
529,1715847738.9651537,-0.590262,-0.11983497,0.39149344,-3.8575854,0.70999813,2.4274693
530,1715847738.966225,-0.590262,-0.11983497,0.39149344,-3.8575854,0.70999813,2.4274693
531,1715847738.9672873,-0.590262,-0.11983497,0.39149344,-3.8575854,0.70999813,2.4274693
532,1715847738.9683502,-0.6844573,-0.13100654,0.16336137,-4.1856866,0.5917539,2.8940547
533,1715847738.9694145,-0.6844573,-0.13100654,0.16336137,-4.1856866,0.5917539,2.8940547
534,1715847738.9704773,-0.6844573,-0.13100654,0.16336137,-4.1856866,0.5917539,2.8940547
535,1715847738.9715412,-0.6844573,-0.13100654,0.16336137,-4.1856866,0.5917539,2.8940547
536,1715847738.9726038,-0.79580677,-0.10481744,0.05097412,-4.532963,0.7206508,3.2178948
537,1715847738.973666,-0.79580677,-0.10481744,0.05097412,-4.532963,0.7206508,3.2178948
538,1715847738.9747334,-0.79580677,-0.10481744,0.05097412,-4.532963,0.7206508,3.2178948
539,1715847738.9757974,-0.79580677,-0.10481744,0.05097412,-4.532963,0.7206508,3.2178948
540,1715847738.9768605,-0.79580677,-0.10481744,0.05097412,-4.532963,0.7206508,3.2178948
541,1715847738.977925,-0.79580677,-0.10481744,0.05097412,-4.532963,0.7206508,3.2178948
542,1715847738.9789908,-0.79580677,-0.10481744,0.05097412,-4.532963,0.7206508,3.2178948
543,1715847738.9800568,-0.79580677,-0.10481744,0.05097412,-4.532963,0.7206508,3.2178948
544,1715847738.9811242,-0.79580677,-0.10481744,0.05097412,-4.532963,0.7206508,3.2178948
545,1715847738.9821906,-0.79580677,-0.10481744,0.05097412,-4.532963,0.7206508,3.2178948
546,1715847738.9832296,-0.79580677,-0.10481744,0.05097412,-4.532963,0.7206508,3.2178948
547,1715847738.9842973,-0.79580677,-0.10481744,0.05097412,-4.532963,0.7206508,3.2178948
548,1715847738.9853668,-0.79580677,-0.10481744,0.05097412,-4.532963,0.7206508,3.2178948
549,1715847738.9864347,-0.79580677,-0.10481744,0.05097412,-4.532963,0.7206508,3.2178948
550,1715847738.9875085,-0.79580677,-0.10481744,0.05097412,-5.096487,1.0711225,3.7718318
551,1715847738.988573,-0.8812113,-0.01898557,0.068433516,-5.096487,1.0711225,3.7718318
552,1715847738.9896376,-0.8812113,-0.01898557,0.068433516,-5.096487,1.0711225,3.7718318
553,1715847738.9907026,-0.8812113,-0.01898557,0.068433516,-5.096487,1.0711225,3.7718318
554,1715847738.9917681,-0.8812113,-0.01898557,0.068433516,-5.096487,1.0711225,3.7718318
555,1715847738.9928339,-0.8812113,-0.01898557,0.068433516,-5.096487,1.0711225,3.7718318
556,1715847738.9938998,-0.8812113,-0.01898557,0.068433516,-5.096487,1.0711225,3.7718318
557,1715847738.9949665,-0.8812113,-0.01898557,0.068433516,-5.096487,1.0711225,3.7718318
558,1715847738.9960334,-0.8812113,-0.01898557,0.068433516,-5.096487,1.0711225,3.7718318
559,1715847738.9971013,-0.8812113,-0.01898557,0.068433516,-5.096487,1.0711225,3.7718318
560,1715847738.998168,-0.8812113,-0.01898557,0.068433516,-5.096487,1.0711225,3.7718318
561,1715847738.9992301,-0.8812113,-0.01898557,0.068433516,-5.096487,1.0711225,3.7718318
562,1715847739.0002959,-0.8812113,-0.01898557,0.068433516,-5.096487,1.0711225,3.7718318
563,1715847739.0014262,-0.8812113,-0.01898557,0.068433516,-5.096487,1.0711225,3.7718318
564,1715847739.002493,-0.8812113,-0.01898557,0.068433516,-5.096487,1.0711225,3.7718318
565,1715847739.003559,-0.8812113,-0.01898557,0.068433516,-5.096487,1.0711225,3.7718318
566,1715847739.004625,-0.8812113,-0.01898557,0.068433516,-5.096487,1.0711225,3.7718318
567,1715847739.005692,-0.8812113,-0.01898557,0.068433516,-5.096487,1.0711225,3.7718318
568,1715847739.006758,-0.8812113,-0.01898557,0.068433516,-5.096487,1.0711225,3.7718318
569,1715847739.0078328,-0.8812113,-0.01898557,0.068433516,-5.096487,1.0711225,3.7718318
570,1715847739.0088987,-0.8812113,-0.01898557,0.068433516,-5.096487,1.0711225,3.7718318
571,1715847739.0099647,-0.8812113,-0.01898557,0.068433516,-5.096487,1.0711225,3.7718318
572,1715847739.0110312,-0.8812113,-0.01898557,0.068433516,-5.096487,1.0711225,3.7718318
573,1715847739.0120983,-0.8812113,-0.01898557,0.068433516,-5.096487,1.0711225,3.7718318
574,1715847739.0131645,-0.8812113,-0.01898557,0.068433516,-5.096487,1.0711225,3.7718318
575,1715847739.0142298,-0.8812113,-0.01898557,0.068433516,-5.096487,1.0711225,3.7718318
576,1715847739.015295,-0.8812113,-0.01898557,0.068433516,-5.096487,1.0711225,3.7718318
577,1715847739.0163612,-0.8812113,-0.01898557,0.068433516,-5.096487,1.0711225,3.7718318
578,1715847739.017428,-0.8812113,-0.01898557,0.068433516,-5.096487,1.0711225,3.7718318
579,1715847739.0184937,-0.8812113,-0.01898557,0.068433516,-5.096487,1.0711225,3.7718318
580,1715847739.0195596,-0.8812113,-0.01898557,0.068433516,-5.096487,1.0711225,3.7718318
581,1715847739.0206292,-0.8812113,-0.01898557,0.068433516,-5.096487,1.0711225,3.7718318
582,1715847739.0216959,-0.8812113,-0.01898557,0.068433516,-5.096487,1.0711225,3.7718318
583,1715847739.0227623,-0.8812113,-0.01898557,0.068433516,-5.096487,1.0711225,3.7718318
584,1715847739.023828,-0.8812113,-0.01898557,0.068433516,-5.096487,1.0711225,3.7718318
585,1715847739.0249007,-0.8812113,-0.01898557,0.068433516,-5.096487,1.0711225,3.7718318
586,1715847739.0259662,-0.8812113,-0.01898557,0.068433516,-5.096487,1.0711225,3.7718318
587,1715847739.0270321,-0.8812113,-0.01898557,0.068433516,-5.096487,1.0711225,3.7718318
588,1715847739.028097,-0.8812113,-0.01898557,0.068433516,-5.096487,1.0711225,3.7718318
589,1715847739.0291677,-0.8812113,-0.01898557,0.068433516,-5.096487,1.0711225,3.7718318
590,1715847739.0302327,-0.8812113,-0.01898557,0.068433516,-5.096487,1.0711225,3.7718318
591,1715847739.0312977,-0.8812113,-0.01898557,0.068433516,-5.096487,1.0711225,3.7718318
592,1715847739.032363,-0.8812113,-0.01898557,0.068433516,-5.096487,1.0711225,3.7718318
593,1715847739.0334299,-0.8812113,-0.01898557,0.068433516,-5.096487,1.0711225,3.7718318
594,1715847739.0344996,-0.7655275,0.09401215,0.285394,-5.096487,1.0711225,3.7718318
595,1715847739.035567,-0.08100917,0.47268578,0.7441001,-6.467481,2.5635567,5.750026
596,1715847739.0366328,0.25731248,0.6166953,0.95916814,-6.434458,2.6679525,5.8991632
597,1715847739.0376985,0.25731248,0.6166953,0.95916814,-6.434458,2.6679525,5.8991632
598,1715847739.0387633,0.25731248,0.6166953,0.95916814,-6.434458,2.6679525,5.8991632
599,1715847739.0398283,0.25731248,0.6166953,0.95916814,-6.434458,2.6679525,5.8991632
600,1715847739.0408936,0.25731248,0.6166953,0.95916814,-6.434458,2.6679525,5.8991632
601,1715847739.0419586,0.25731248,0.6166953,0.95916814,-6.434458,2.6679525,5.8991632
602,1715847739.0430653,0.25731248,0.6166953,0.95916814,-6.434458,2.6679525,5.8991632
603,1715847739.0441272,0.7420245,0.75295186,1.0351714,-6.2938433,2.2610219,5.8821187
604,1715847739.0452242,0.7420245,0.75295186,1.0351714,-6.2938433,2.2610219,5.8821187
605,1715847739.046321,0.7420245,0.75295186,1.0351714,-6.2938433,2.2610219,5.8821187
606,1715847739.0473847,0.7420245,0.75295186,1.0351714,-6.2938433,2.2610219,5.8821187
607,1715847739.0484796,0.7420245,0.75295186,1.0351714,-6.2938433,2.2610219,5.8821187
608,1715847739.0495875,0.7420245,0.75295186,1.0351714,-6.2938433,2.2610219,5.8821187
609,1715847739.0506506,0.7420245,0.75295186,1.0351714,-6.2938433,2.2610219,5.8821187
610,1715847739.0517144,0.7420245,0.75295186,1.0351714,-6.2938433,2.2610219,5.8821187
611,1715847739.0528123,0.7420245,0.75295186,1.0351714,-6.2938433,2.2610219,5.8821187
612,1715847739.05391,1.1657506,0.9226621,1.071067,-6.2629504,1.5771227,5.7564178
613,1715847739.0550086,1.1657506,0.9226621,1.071067,-6.2629504,1.5771227,5.7564178
614,1715847739.0561056,1.1657506,0.9226621,1.071067,-6.2629504,1.5771227,5.7564178
615,1715847739.057202,1.1657506,0.9226621,1.071067,-6.2629504,1.5771227,5.7564178
616,1715847739.0583036,1.1657506,0.9226621,1.071067,-6.2629504,1.5771227,5.7564178
617,1715847739.0593662,1.1657506,0.9226621,1.071067,-6.2629504,1.5771227,5.7564178
618,1715847739.0604653,1.1657506,0.9226621,1.071067,-6.2629504,1.5771227,5.7564178
619,1715847739.06155,1.1657506,0.9226621,1.071067,-6.2629504,1.5771227,5.7564178
620,1715847739.0626447,2.027366,1.2194109,1.4425372,-6.328997,0.103863195,5.2578745
621,1715847739.0637414,2.027366,1.2194109,1.4425372,-6.328997,0.103863195,5.2578745
622,1715847739.0648386,2.027366,1.2194109,1.4425372,-6.328997,0.103863195,5.2578745
623,1715847739.0659344,2.027366,1.2194109,1.4425372,-6.328997,0.103863195,5.2578745
624,1715847739.0670311,2.027366,1.2194109,1.4425372,-6.328997,0.103863195,5.2578745
625,1715847739.0681005,2.027366,1.2194109,1.4425372,-6.328997,0.103863195,5.2578745
626,1715847739.0691674,2.027366,1.2194109,1.4425372,-6.328997,0.103863195,5.2578745
627,1715847739.0702326,2.027366,1.2194109,1.4425372,-6.328997,0.103863195,5.2578745
628,1715847739.071307,2.3402922,1.5491248,1.8362892,-6.328997,0.103863195,5.2578745
629,1715847739.0723748,2.3402922,1.5491248,1.8362892,-6.15962,-0.7494129,4.6378913
630,1715847739.0734384,2.3402922,1.5491248,1.8362892,-6.15962,-0.7494129,4.6378913
631,1715847739.0745366,2.3402922,1.5491248,1.8362892,-6.15962,-0.7494129,4.6378913
632,1715847739.0756342,2.3402922,1.5491248,1.8362892,-6.15962,-0.7494129,4.6378913
633,1715847739.0767345,2.3402922,1.5491248,1.8362892,-6.15962,-0.7494129,4.6378913
634,1715847739.0778337,2.3402922,1.5491248,1.8362892,-6.15962,-0.7494129,4.6378913
635,1715847739.078931,2.3402922,1.5491248,1.8362892,-6.15962,-0.7494129,4.6378913
636,1715847739.0800278,2.3402922,1.5491248,1.8362892,-6.15962,-0.7494129,4.6378913
637,1715847739.0811238,2.3402922,1.5491248,1.8362892,-6.15962,-0.7494129,4.6378913
638,1715847739.082228,2.3402922,1.5491248,1.8362892,-6.15962,-0.7494129,4.6378913
639,1715847739.0832906,2.3402922,1.5491248,1.8362892,-6.15962,-0.7494129,4.6378913
640,1715847739.0843875,2.3402922,1.5491248,1.8362892,-6.15962,-0.7494129,4.6378913
641,1715847739.0854824,2.3402922,1.5491248,1.8362892,-6.15962,-0.7494129,4.6378913
642,1715847739.0865824,2.467697,1.7828734,2.074128,-5.81554,-1.0988194,4.043474
643,1715847739.0876799,2.467697,1.7828734,2.074128,-5.81554,-1.0988194,4.043474
644,1715847739.0887775,2.467697,1.7828734,2.074128,-5.81554,-1.0988194,4.043474
645,1715847739.0898752,2.467697,1.7828734,2.074128,-5.81554,-1.0988194,4.043474
646,1715847739.0909748,2.467697,1.7828734,2.074128,-5.81554,-1.0988194,4.043474
647,1715847739.0921807,2.443278,1.9021589,2.1026978,-5.4948955,-0.8623308,3.570497
648,1715847739.0932422,2.443278,1.9021589,2.1026978,-5.4948955,-0.8623308,3.570497
649,1715847739.0942998,2.443278,1.9021589,2.1026978,-5.4948955,-0.8623308,3.570497
650,1715847739.095366,2.443278,1.9021589,2.1026978,-5.4948955,-0.8623308,3.570497
651,1715847739.096466,2.443278,1.9021589,2.1026978,-5.4948955,-0.8623308,3.570497
652,1715847739.097562,2.443278,1.9021589,2.1026978,-5.4948955,-0.8623308,3.570497
653,1715847739.0986598,2.443278,1.9021589,2.1026978,-5.4948955,-0.8623308,3.570497
654,1715847739.0997555,2.443278,1.9021589,2.1026978,-5.4948955,-0.8623308,3.570497
655,1715847739.1008515,2.443278,1.9021589,2.1026978,-5.4948955,-0.8623308,3.570497
656,1715847739.1019387,2.443278,1.9021589,2.1026978,-5.4948955,-0.8623308,3.570497
657,1715847739.1030362,2.443278,1.9021589,2.1026978,-5.4948955,-0.8623308,3.570497
658,1715847739.104131,2.443278,1.9021589,2.1026978,-5.4948955,-0.8623308,3.570497
659,1715847739.1052244,2.443278,1.9021589,2.1026978,-5.4948955,-0.8623308,3.570497
660,1715847739.10632,2.443278,1.9021589,2.1026978,-5.4948955,-0.8623308,3.570497
661,1715847739.1073835,2.443278,1.9021589,2.1026978,-5.4948955,-0.8623308,3.570497
662,1715847739.10848,2.443278,1.9021589,2.1026978,-5.4948955,-0.8623308,3.570497
663,1715847739.1095757,2.443278,1.9021589,2.1026978,-5.4948955,-0.8623308,3.570497
664,1715847739.1106706,2.443278,1.9021589,2.1026978,-5.4948955,-0.8623308,3.570497
665,1715847739.1117651,2.443278,1.9021589,2.1026978,-5.4948955,-0.8623308,3.570497
666,1715847739.1128633,2.443278,1.9021589,2.1026978,-5.4948955,-0.8623308,3.570497
667,1715847739.113968,2.443278,1.9021589,2.1026978,-5.4948955,-0.8623308,3.570497
668,1715847739.1150622,2.443278,1.9021589,2.1026978,-5.4948955,-0.8623308,3.570497
669,1715847739.116156,2.443278,1.9021589,2.1026978,-5.4948955,-0.8623308,3.570497
670,1715847739.1172528,2.443278,1.9021589,2.1026978,-5.4948955,-0.8623308,3.570497
671,1715847739.1183155,2.443278,1.9021589,2.1026978,-5.4948955,-0.8623308,3.570497
672,1715847739.119377,2.443278,1.9021589,2.1026978,-5.4948955,-0.8623308,3.570497
673,1715847739.1204393,2.443278,1.9021589,2.1026978,-5.4948955,-0.8623308,3.570497
674,1715847739.1214983,2.443278,1.9021589,2.1026978,-5.4948955,-0.8623308,3.570497
675,1715847739.122563,2.443278,1.9021589,2.1026978,-5.4948955,-0.8623308,3.570497
676,1715847739.1236248,2.443278,1.9021589,2.1026978,-5.4948955,-0.8623308,3.570497
677,1715847739.1246881,2.443278,1.9021589,2.1026978,-5.4948955,-0.8623308,3.570497
678,1715847739.1257856,2.443278,1.9021589,2.1026978,-5.4948955,-0.8623308,3.570497
679,1715847739.126845,1.9107053,1.7300067,2.433999,-4.90687,1.3310468,2.4242735
680,1715847739.1279461,1.9107053,1.7300067,2.433999,-4.90687,1.3310468,2.4242735
681,1715847739.129042,1.9107053,1.7300067,2.433999,-4.90687,1.3310468,2.4242735
682,1715847739.1301382,1.9107053,1.7300067,2.433999,-4.90687,1.3310468,2.4242735
683,1715847739.1312394,1.9107053,1.7300067,2.433999,-4.90687,1.3310468,2.4242735
684,1715847739.1323378,1.9107053,1.7300067,2.433999,-4.90687,1.3310468,2.4242735
685,1715847739.1334372,1.9107053,1.7300067,2.433999,-4.90687,1.3310468,2.4242735
686,1715847739.1345096,1.9107053,1.7300067,2.433999,-4.90687,1.3310468,2.4242735
687,1715847739.1356068,1.9107053,1.7300067,2.433999,-4.90687,1.3310468,2.4242735
688,1715847739.1367297,1.7535098,1.7673675,2.5962615,-4.445611,1.348091,2.1792629
689,1715847739.1377923,1.7535098,1.7673675,2.5962615,-4.445611,1.348091,2.1792629
690,1715847739.1388967,1.7535098,1.7673675,2.5962615,-4.445611,1.348091,2.1792629
691,1715847739.1399908,1.7535098,1.7673675,2.5962615,-4.445611,1.348091,2.1792629
692,1715847739.1410856,1.7535098,1.7673675,2.5962615,-4.445611,1.348091,2.1792629
693,1715847739.1421866,1.7535098,1.7673675,2.5962615,-3.3654337,0.7877624,1.7499616
694,1715847739.1432586,1.7535098,1.7673675,2.5962615,-3.3654337,0.7877624,1.7499616
695,1715847739.1443543,1.7535098,1.7673675,2.5962615,-3.3654337,0.7877624,1.7499616
696,1715847739.1454487,1.7535098,1.7673675,2.5962615,-3.3654337,0.7877624,1.7499616
697,1715847739.1465435,1.7535098,1.7673675,2.5962615,-3.3654337,0.7877624,1.7499616
698,1715847739.1476393,1.7535098,1.7673675,2.5962615,-3.3654337,0.7877624,1.7499616
699,1715847739.148733,1.7535098,1.7673675,2.5962615,-3.3654337,0.7877624,1.7499616
700,1715847739.1498275,1.7535098,1.7673675,2.5962615,-3.3654337,0.7877624,1.7499616
701,1715847739.1509192,1.7535098,1.7673675,2.5962615,-3.3654337,0.7877624,1.7499616
702,1715847739.1520157,1.7535098,1.7673675,2.5962615,-3.3654337,0.7877624,1.7499616
703,1715847739.153111,1.7535098,1.7673675,2.5962615,-3.3654337,0.7877624,1.7499616
704,1715847739.1542022,1.7535098,1.7673675,2.5962615,-3.3654337,0.7877624,1.7499616
705,1715847739.155293,1.7535098,1.7673675,2.5962615,-3.3654337,0.7877624,1.7499616
706,1715847739.1563952,1.6309887,1.7387364,2.6413143,-3.3654337,0.7877624,1.7499616
707,1715847739.1574888,1.6309887,1.7387364,2.6413143,-3.3654337,0.7877624,1.7499616
708,1715847739.1585824,1.6309887,1.7387364,2.6413143,-3.3654337,0.7877624,1.7499616
709,1715847739.1596768,1.6309887,1.7387364,2.6413143,-3.3654337,0.7877624,1.7499616
710,1715847739.1607728,1.6309887,1.7387364,2.6413143,-3.3654337,0.7877624,1.7499616
711,1715847739.161849,1.611942,1.6989949,2.58802,-1.65249,-0.30732852,1.0351698
712,1715847739.1629448,1.611942,1.6989949,2.58802,-1.65249,-0.30732852,1.0351698
713,1715847739.1640382,1.611942,1.6989949,2.58802,-1.65249,-0.30732852,1.0351698
714,1715847739.1651318,1.611942,1.6989949,2.58802,-1.65249,-0.30732852,1.0351698
715,1715847739.1661944,1.611942,1.6989949,2.58802,-1.65249,-0.30732852,1.0351698
716,1715847739.167257,1.611942,1.6989949,2.58802,-1.65249,-0.30732852,1.0351698
717,1715847739.168345,1.611942,1.6989949,2.58802,-1.65249,-0.30732852,1.0351698
718,1715847739.169438,1.611942,1.6989949,2.58802,-1.65249,-0.30732852,1.0351698
719,1715847739.1704996,1.611942,1.6989949,2.58802,-1.65249,-0.30732852,1.0351698
720,1715847739.1715593,1.611942,1.6989949,2.58802,-1.65249,-0.30732852,1.0351698
721,1715847739.172618,1.3336905,1.5481482,1.911377,-0.68842655,-0.97311825,0.5430181
722,1715847739.1736763,1.3336905,1.5481482,1.911377,-0.68842655,-0.97311825,0.5430181
723,1715847739.1747367,1.3336905,1.5481482,1.911377,-0.68842655,-0.97311825,0.5430181
724,1715847739.1758366,1.3336905,1.5481482,1.911377,-0.68842655,-0.97311825,0.5430181
725,1715847739.1769402,1.3336905,1.5481482,1.911377,-0.68842655,-0.97311825,0.5430181
726,1715847739.1780365,1.3336905,1.5481482,1.911377,-0.68842655,-0.97311825,0.5430181
727,1715847739.179132,1.3336905,1.5481482,1.911377,-0.68842655,-0.97311825,0.5430181
728,1715847739.1801941,1.3336905,1.5481482,1.911377,-0.68842655,-0.97311825,0.5430181
729,1715847739.181288,1.3336905,1.5481482,1.911377,-0.68842655,-0.97311825,0.5430181
730,1715847739.1823814,1.3336905,1.5481482,1.911377,-0.68842655,-0.97311825,0.5430181
731,1715847739.1834426,1.3336905,1.5481482,1.911377,-0.68842655,-0.97311825,0.5430181
732,1715847739.1845393,1.3336905,1.5481482,1.911377,-0.68842655,-0.97311825,0.5430181
733,1715847739.1856356,1.3336905,1.5481482,1.911377,-0.68842655,-0.97311825,0.5430181
734,1715847739.1867316,1.3336905,1.5481482,1.911377,-0.68842655,-0.97311825,0.5430181
735,1715847739.1878233,1.3336905,1.5481482,1.911377,-0.68842655,-0.97311825,0.5430181
736,1715847739.1889179,1.3336905,1.5481482,1.911377,-0.68842655,-0.97311825,0.5430181
737,1715847739.190019,1.3336905,1.5481482,1.911377,-0.68842655,-0.97311825,0.5430181
738,1715847739.191111,1.3336905,1.5481482,1.911377,-0.68842655,-0.97311825,0.5430181
739,1715847739.1922064,1.3336905,1.5481482,1.911377,-0.68842655,-0.97311825,0.5430181
740,1715847739.1933002,1.3336905,1.5481482,1.911377,-0.68842655,-0.97311825,0.5430181
741,1715847739.1943967,1.3336905,1.5481482,1.911377,-0.68842655,-0.97311825,0.5430181
742,1715847739.195458,1.3336905,1.5481482,1.911377,-0.68842655,-0.97311825,0.5430181
743,1715847739.1965199,1.026686,1.3440685,1.2681873,-0.27936536,-1.0359688,0.08708529
744,1715847739.197615,1.026686,1.3440685,1.2681873,-0.27936536,-1.0359688,0.08708529
745,1715847739.1987128,1.026686,1.3440685,1.2681873,-0.27936536,-1.0359688,0.08708529
746,1715847739.1998506,1.026686,1.3440685,1.2681873,-0.27936536,-1.0359688,0.08708529
747,1715847739.2009168,1.026686,1.3440685,1.2681873,-0.27936536,-1.0359688,0.08708529
748,1715847739.201982,1.026686,1.3440685,1.2681873,-0.27936536,-1.0359688,0.08708529
749,1715847739.203042,1.026686,1.3440685,1.2681873,-0.27936536,-1.0359688,0.08708529
750,1715847739.2041116,1.026686,1.3440685,1.2681873,-0.27936536,-1.0359688,0.08708529
751,1715847739.2052085,1.026686,1.3440685,1.2681873,-0.27936536,-1.0359688,0.08708529
752,1715847739.2063107,1.026686,1.3440685,1.2681873,-0.27936536,-1.0359688,0.08708529
753,1715847739.207372,1.026686,1.3440685,1.2681873,-0.27936536,-1.0359688,0.08708529
754,1715847739.2084658,1.026686,1.3440685,1.2681873,-0.27936536,-1.0359688,0.08708529
755,1715847739.2095594,1.026686,1.3440685,1.2681873,-0.27936536,-1.0359688,0.08708529
756,1715847739.210643,1.026686,1.3440685,1.2681873,-0.27936536,-1.0359688,0.08708529
757,1715847739.2117367,1.026686,1.3440685,1.2681873,-0.27936536,-1.0359688,0.08708529
758,1715847739.2128289,1.026686,1.3440685,1.2681873,-0.27936536,-1.0359688,0.08708529
759,1715847739.213924,1.026686,1.3440685,1.2681873,-0.27936536,-1.0359688,0.08708529
760,1715847739.2150168,1.026686,1.3440685,1.2681873,-0.27936536,-1.0359688,0.08708529
761,1715847739.2161152,1.026686,1.3440685,1.2681873,-0.27936536,-1.0359688,0.08708529
762,1715847739.2172086,1.026686,1.3440685,1.2681873,-0.27936536,-1.0359688,0.08708529
763,1715847739.2182708,1.026686,1.3440685,1.2681873,-0.27936536,-1.0359688,0.08708529
764,1715847739.21934,1.026686,1.3440685,1.2681873,-0.27936536,-1.0359688,0.08708529
765,1715847739.2204337,1.026686,1.3440685,1.2681873,-0.27936536,-1.0359688,0.08708529
766,1715847739.221525,0.7464809,1.1142272,1.0836427,-0.52757174,0.16245268,-0.04926844
767,1715847739.2226193,0.61846566,1.0099591,1.1795472,-0.49561384,0.7920234,-0.06950845
768,1715847739.2237144,0.61846566,1.0099591,1.1795472,-0.49561384,0.7920234,-0.06950845
769,1715847739.224808,0.61846566,1.0099591,1.1795472,-0.49561384,0.7920234,-0.06950845
770,1715847739.225903,0.61846566,1.0099591,1.1795472,-0.49561384,0.7920234,-0.06950845
771,1715847739.227004,0.61846566,1.0099591,1.1795472,-0.49561384,0.7920234,-0.06950845
772,1715847739.2281015,0.61846566,1.0099591,1.1795472,-0.49561384,0.7920234,-0.06950845
773,1715847739.2291965,0.61846566,1.0099591,1.1795472,-0.49561384,0.7920234,-0.06950845
774,1715847739.2302835,0.5149913,0.9086214,1.2419982,-0.25379902,1.1765835,-0.08974845
775,1715847739.231345,0.5149913,0.9086214,1.2419982,-0.25379902,1.1765835,-0.08974845
776,1715847739.2324326,0.5149913,0.9086214,1.2419982,-0.25379902,1.1765835,-0.08974845
777,1715847739.2335293,0.5149913,0.9086214,1.2419982,-0.25379902,1.1765835,-0.08974845
778,1715847739.2346385,0.5149913,0.9086214,1.2419982,-0.25379902,1.1765835,-0.08974845
779,1715847739.2357335,0.5149913,0.9086214,1.2419982,-0.25379902,1.1765835,-0.08974845
780,1715847739.2368305,0.5149913,0.9086214,1.2419982,-0.25379902,1.1765835,-0.08974845
781,1715847739.237927,0.5149913,0.9086214,1.2419982,-0.25379902,1.1765835,-0.08974845
782,1715847739.2390285,0.5149913,0.9086214,1.2419982,-0.25379902,1.1765835,-0.08974845
783,1715847739.2401168,0.5149913,0.9086214,1.2419982,-0.25379902,1.1765835,-0.08974845
784,1715847739.2412202,0.5149913,0.9086214,1.2419982,-0.25379902,1.1765835,-0.08974845
785,1715847739.2422833,0.42372617,0.809176,1.2584808,-0.25379902,1.1765835,-0.08974845
786,1715847739.2433462,0.42372617,0.809176,1.2584808,0.15206636,1.2777836,-0.09294424
787,1715847739.2444434,0.42372617,0.809176,1.2584808,0.15206636,1.2777836,-0.09294424
788,1715847739.2455103,0.42372617,0.809176,1.2584808,0.15206636,1.2777836,-0.09294424
789,1715847739.2465782,0.42372617,0.809176,1.2584808,0.15206636,1.2777836,-0.09294424
790,1715847739.2476451,0.42372617,0.809176,1.2584808,0.15206636,1.2777836,-0.09294424
791,1715847739.2487104,0.42372617,0.809176,1.2584808,0.15206636,1.2777836,-0.09294424
792,1715847739.249777,0.42372617,0.809176,1.2584808,0.15206636,1.2777836,-0.09294424
793,1715847739.250842,0.42372617,0.809176,1.2584808,0.15206636,1.2777836,-0.09294424
794,1715847739.2519283,0.42372617,0.809176,1.2584808,0.15206636,1.2777836,-0.09294424
795,1715847739.2529948,0.42372617,0.809176,1.2584808,0.15206636,1.2777836,-0.09294424
796,1715847739.254067,0.42372617,0.809176,1.2584808,0.15206636,1.2777836,-0.09294424
797,1715847739.2551327,0.3753771,0.7509984,1.2308877,0.5195823,1.1616699,-0.07803056
798,1715847739.2561972,0.3753771,0.7509984,1.2308877,0.5195823,1.1616699,-0.07803056
799,1715847739.2572615,0.3753771,0.7509984,1.2308877,0.5195823,1.1616699,-0.07803056
800,1715847739.258325,0.3753771,0.7509984,1.2308877,0.5195823,1.1616699,-0.07803056
801,1715847739.259389,0.3753771,0.7509984,1.2308877,0.5195823,1.1616699,-0.07803056
802,1715847739.2604535,0.3753771,0.7509984,1.2308877,0.5195823,1.1616699,-0.07803056
803,1715847739.2615259,0.3753771,0.7509984,1.2308877,0.5195823,1.1616699,-0.07803056
804,1715847739.2625916,0.36853984,0.6685851,1.1107475,1.1661973,0.753674,-0.074834764
805,1715847739.263656,0.36853984,0.6685851,1.1107475,1.1661973,0.753674,-0.074834764
806,1715847739.2647192,0.36853984,0.6685851,1.1107475,1.1661973,0.753674,-0.074834764
807,1715847739.2657826,0.36853984,0.6685851,1.1107475,1.1661973,0.753674,-0.074834764
808,1715847739.2668467,0.36853984,0.6685851,1.1107475,1.1661973,0.753674,-0.074834764
809,1715847739.2679107,0.36853984,0.6685851,1.1107475,1.1661973,0.753674,-0.074834764
810,1715847739.268976,0.36853984,0.6685851,1.1107475,1.1661973,0.753674,-0.074834764
811,1715847739.2700405,0.36853984,0.6685851,1.1107475,1.1661973,0.753674,-0.074834764
812,1715847739.2711053,0.36853984,0.6685851,1.1107475,1.1661973,0.753674,-0.074834764
813,1715847739.27217,0.36853984,0.6685851,1.1107475,1.6104121,0.3723096,-0.10146635
814,1715847739.2732337,0.36609796,0.6113842,0.95672625,1.6104121,0.3723096,-0.10146635
815,1715847739.2742984,0.36609796,0.6113842,0.95672625,1.6104121,0.3723096,-0.10146635
816,1715847739.2753615,0.36609796,0.6113842,0.95672625,1.6104121,0.3723096,-0.10146635
817,1715847739.2764351,0.36609796,0.6113842,0.95672625,1.6104121,0.3723096,-0.10146635
818,1715847739.2774992,0.36609796,0.6113842,0.95672625,1.6104121,0.3723096,-0.10146635
819,1715847739.2785628,0.36609796,0.6113842,0.95672625,1.6104121,0.3723096,-0.10146635
820,1715847739.279626,0.36609796,0.6113842,0.95672625,1.6104121,0.3723096,-0.10146635
821,1715847739.2806892,0.36609796,0.6113842,0.95672625,1.6104121,0.3723096,-0.10146635
822,1715847739.2817538,0.36609796,0.6113842,0.95672625,1.6104121,0.3723096,-0.10146635
823,1715847739.282827,0.36609796,0.6113842,0.95672625,1.6104121,0.3723096,-0.10146635
824,1715847739.283891,0.36609796,0.6113842,0.95672625,1.6104121,0.3723096,-0.10146635
825,1715847739.2849545,0.36609796,0.6113842,0.95672625,1.6104121,0.3723096,-0.10146635
826,1715847739.2860193,0.36609796,0.6113842,0.95672625,1.6104121,0.3723096,-0.10146635
827,1715847739.2870827,0.36609796,0.6113842,0.95672625,1.6104121,0.3723096,-0.10146635
828,1715847739.2881472,0.36609796,0.6113842,0.95672625,1.6104121,0.3723096,-0.10146635
829,1715847739.2892106,0.36609796,0.6113842,0.95672625,1.6104121,0.3723096,-0.10146635
830,1715847739.2902732,0.36609796,0.6113842,0.95672625,1.6104121,0.3723096,-0.10146635
831,1715847739.2913365,0.36609796,0.6113842,0.95672625,1.6104121,0.3723096,-0.10146635
832,1715847739.2924,0.36609796,0.6113842,0.95672625,1.6104121,0.3723096,-0.10146635
833,1715847739.2934732,0.36609796,0.6113842,0.95672625,1.6104121,0.3723096,-0.10146635
834,1715847739.2945726,0.36609796,0.6113842,0.95672625,1.6104121,0.3723096,-0.10146635
835,1715847739.2956688,0.36609796,0.6113842,0.95672625,1.6104121,0.3723096,-0.10146635
836,1715847739.296765,0.36609796,0.6113842,0.95672625,1.6104121,0.3723096,-0.10146635
837,1715847739.2978644,0.36609796,0.6113842,0.95672625,1.6104121,0.3723096,-0.10146635
838,1715847739.2989585,0.36609796,0.6113842,0.95672625,1.6104121,0.3723096,-0.10146635
839,1715847739.3000536,0.36609796,0.6113842,0.95672625,1.6104121,0.3723096,-0.10146635
840,1715847739.3011608,0.36609796,0.6113842,0.95672625,1.6104121,0.3723096,-0.10146635
841,1715847739.30225,0.36609796,0.6113842,0.95672625,1.6104121,0.3723096,-0.10146635
842,1715847739.3033195,0.36609796,0.6113842,0.95672625,1.6104121,0.3723096,-0.10146635
843,1715847739.3044145,0.36609796,0.6113842,0.95672625,1.6104121,0.3723096,-0.10146635
844,1715847739.305512,0.36609796,0.6113842,0.95672625,1.6104121,0.3723096,-0.10146635
845,1715847739.3066087,0.36609796,0.6113842,0.95672625,1.6104121,0.3723096,-0.10146635
846,1715847739.3077033,0.36609796,0.6113842,0.95672625,1.6104121,0.3723096,-0.10146635
847,1715847739.3087978,0.36609796,0.6113842,0.95672625,1.6104121,0.3723096,-0.10146635
848,1715847739.309906,0.36609796,0.6113842,0.95672625,1.6104121,0.3723096,-0.10146635
849,1715847739.3110037,0.36609796,0.6113842,0.95672625,1.6104121,0.3723096,-0.10146635
850,1715847739.312101,0.36609796,0.6113842,0.95672625,1.6104121,0.3723096,-0.10146635
851,1715847739.3131962,0.36609796,0.6113842,0.95672625,1.6104121,0.3723096,-0.10146635
852,1715847739.3142884,0.36609796,0.6113842,0.95672625,1.6104121,0.3723096,-0.10146635
853,1715847739.3153512,0.36609796,0.6113842,0.95672625,1.6104121,0.3723096,-0.10146635
854,1715847739.316413,0.38172597,0.54978794,0.7799346,1.6104121,0.3723096,-0.10146635
855,1715847739.3175075,0.38172597,0.54978794,0.7799346,1.6104121,0.3723096,-0.10146635
856,1715847739.3185916,0.38172597,0.54978794,0.7799346,1.9108164,0.072970554,-0.14833795
857,1715847739.3196876,0.38172597,0.54978794,0.7799346,1.9108164,0.072970554,-0.14833795
858,1715847739.320798,0.3938743,0.4256797,0.4297698,2.0897808,-0.18162744,-0.28256115
859,1715847739.3218596,0.40559527,0.37958932,0.3430833,2.0897808,-0.18162744,-0.28256115
860,1715847739.322954,0.40559527,0.37958932,0.3430833,2.0897808,-0.18162744,-0.28256115
861,1715847739.3240495,0.40559527,0.37958932,0.3430833,2.0897808,-0.18162744,-0.28256115
862,1715847739.3251522,0.40559527,0.37958932,0.3430833,1.982189,-0.16990954,-0.30812746
863,1715847739.3262484,0.40559527,0.37958932,0.3430833,1.982189,-0.16990954,-0.30812746
864,1715847739.3273113,0.40559527,0.37958932,0.3430833,1.982189,-0.16990954,-0.30812746
865,1715847739.328375,0.40559527,0.37958932,0.3430833,1.982189,-0.16990954,-0.30812746
866,1715847739.3294709,0.40559527,0.37958932,0.3430833,1.982189,-0.16990954,-0.30812746
867,1715847739.3305333,0.41780466,0.371348,0.3168942,1.7904416,-0.14860426,-0.31984538
868,1715847739.3316286,0.41780466,0.371348,0.3168942,1.7904416,-0.14860426,-0.31984538
869,1715847739.3327215,0.41780466,0.371348,0.3168942,1.7904416,-0.14860426,-0.31984538
870,1715847739.3338158,0.41780466,0.371348,0.3168942,1.7904416,-0.14860426,-0.31984538
871,1715847739.3348784,0.41780466,0.371348,0.3168942,1.7904416,-0.14860426,-0.31984538
872,1715847739.3359766,0.41780466,0.371348,0.3168942,1.7904416,-0.14860426,-0.31984538
873,1715847739.3370743,0.41780466,0.371348,0.3168942,1.7904416,-0.14860426,-0.31984538
874,1715847739.3381696,0.41780466,0.371348,0.3168942,1.7904416,-0.14860426,-0.31984538
875,1715847739.3392608,0.41780466,0.371348,0.3168942,1.7904416,-0.14860426,-0.31984538
876,1715847739.3403594,0.41780466,0.371348,0.3168942,1.7904416,-0.14860426,-0.31984538
877,1715847739.3414218,0.41780466,0.371348,0.3168942,1.7904416,-0.14860426,-0.31984538
878,1715847739.3425179,0.44564202,0.35681883,0.32708904,1.5933679,-0.074035816,-0.3390201
879,1715847739.3436131,0.44564202,0.35681883,0.32708904,1.5933679,-0.074035816,-0.3390201
880,1715847739.344711,0.44564202,0.35681883,0.32708904,1.5933679,-0.074035816,-0.3390201
881,1715847739.3458142,0.44564202,0.35681883,0.32708904,1.5933679,-0.074035816,-0.3390201
882,1715847739.34691,0.44564202,0.35681883,0.32708904,1.5933679,-0.074035816,-0.3390201
883,1715847739.3480077,0.44564202,0.35681883,0.32708904,1.5933679,-0.074035816,-0.3390201
884,1715847739.349105,0.44564202,0.35681883,0.32708904,1.5933679,-0.074035816,-0.3390201
885,1715847739.3501992,0.44564202,0.35681883,0.32708904,1.5933679,-0.074035816,-0.3390201
886,1715847739.351259,0.44564202,0.35681883,0.32708904,1.5933679,-0.074035816,-0.3390201
887,1715847739.3523226,0.45736304,0.34033617,0.32806578,1.5933679,-0.074035816,-0.3390201
888,1715847739.3533854,0.45736304,0.34033617,0.32806578,1.4463615,0.021837901,-0.37204328
889,1715847739.3544834,0.45736304,0.34033617,0.32806578,1.4463615,0.021837901,-0.37204328
890,1715847739.355571,0.45736304,0.34033617,0.32806578,1.4463615,0.021837901,-0.37204328
891,1715847739.3566692,0.45736304,0.34033617,0.32806578,1.4463615,0.021837901,-0.37204328
892,1715847739.3577664,0.45736304,0.34033617,0.32806578,1.4463615,0.021837901,-0.37204328
893,1715847739.3588605,0.45736304,0.34033617,0.32806578,1.4463615,0.021837901,-0.37204328
894,1715847739.3599455,0.45736304,0.34033617,0.32806578,1.4463615,0.021837901,-0.37204328
895,1715847739.3610406,0.45736304,0.34033617,0.32806578,1.4463615,0.021837901,-0.37204328
896,1715847739.3621376,0.45980486,0.31848142,0.35517058,1.1843067,0.16032216,-0.42104542
897,1715847739.3632262,0.45980486,0.31848142,0.35517058,1.1843067,0.16032216,-0.42104542
898,1715847739.3643217,0.45980486,0.31848142,0.35517058,1.1843067,0.16032216,-0.42104542
899,1715847739.3654168,0.45980486,0.31848142,0.35517058,1.1843067,0.16032216,-0.42104542
900,1715847739.366513,0.45980486,0.31848142,0.35517058,1.1843067,0.16032216,-0.42104542
901,1715847739.367616,0.45980486,0.31848142,0.35517058,1.1843067,0.16032216,-0.42104542
902,1715847739.3687122,0.45980486,0.31848142,0.35517058,1.1843067,0.16032216,-0.42104542
903,1715847739.3698905,0.45980486,0.31848142,0.35517058,1.1843067,0.16032216,-0.42104542
904,1715847739.3709862,0.45980486,0.31848142,0.35517058,1.1843067,0.16032216,-0.42104542
905,1715847739.372089,0.45980486,0.31848142,0.35517058,1.1843067,0.16032216,-0.42104542
906,1715847739.3731854,0.45980486,0.31848142,0.35517058,1.1843067,0.16032216,-0.42104542
907,1715847739.3742783,0.45980486,0.31848142,0.35517058,1.1843067,0.16032216,-0.42104542
908,1715847739.3753405,0.45980486,0.31848142,0.35517058,1.1843067,0.16032216,-0.42104542
909,1715847739.3764362,0.45980486,0.31848142,0.35517058,1.1843067,0.16032216,-0.42104542
910,1715847739.3775322,0.45980486,0.31848142,0.35517058,1.1843067,0.16032216,-0.42104542
911,1715847739.3786309,0.45980486,0.31848142,0.35517058,1.1843067,0.16032216,-0.42104542
912,1715847739.3797252,0.45980486,0.31848142,0.35517058,1.1843067,0.16032216,-0.42104542
913,1715847739.380821,0.45980486,0.31848142,0.35517058,1.1843067,0.16032216,-0.42104542
914,1715847739.3819199,0.45980486,0.31848142,0.35517058,1.1843067,0.16032216,-0.42104542
915,1715847739.383017,0.45980486,0.31848142,0.35517058,1.1843067,0.16032216,-0.42104542
916,1715847739.3841124,0.45980486,0.31848142,0.35517058,1.1843067,0.16032216,-0.42104542
917,1715847739.385209,0.45980486,0.31848142,0.35517058,1.1843067,0.16032216,-0.42104542
918,1715847739.3862793,0.45980486,0.31848142,0.35517058,1.1843067,0.16032216,-0.42104542
919,1715847739.3873436,0.45980486,0.31848142,0.35517058,1.1843067,0.16032216,-0.42104542
920,1715847739.3884156,0.45980486,0.31848142,0.35517058,1.1843067,0.16032216,-0.42104542
921,1715847739.3894796,0.45980486,0.31848142,0.35517058,1.1843067,0.16032216,-0.42104542
922,1715847739.390544,0.45980486,0.31848142,0.35517058,1.1843067,0.16032216,-0.42104542
923,1715847739.3916087,0.45980486,0.31848142,0.35517058,1.1843067,0.16032216,-0.42104542
924,1715847739.3926728,0.45980486,0.31848142,0.35517058,1.1843067,0.16032216,-0.42104542
925,1715847739.3937366,0.45980486,0.31848142,0.35517058,1.1843067,0.16032216,-0.42104542
926,1715847739.3948019,0.45980486,0.31848142,0.35517058,1.1843067,0.16032216,-0.42104542
927,1715847739.3958662,0.45980486,0.31848142,0.35517058,1.1843067,0.16032216,-0.42104542
928,1715847739.396929,0.45980486,0.31848142,0.35517058,1.1843067,0.16032216,-0.42104542
929,1715847739.3979926,0.45980486,0.31848142,0.35517058,1.1843067,0.16032216,-0.42104542
930,1715847739.399057,0.45980486,0.31848142,0.35517058,1.1843067,0.16032216,-0.42104542
931,1715847739.400121,0.45980486,0.31848142,0.35517058,1.1843067,0.16032216,-0.42104542
932,1715847739.4011872,0.45833975,0.30492902,0.40748775,0.987233,0.23062955,-0.4412854
933,1715847739.4022546,0.45833975,0.30492902,0.40748775,0.987233,0.23062955,-0.4412854
934,1715847739.4033177,0.46468863,0.3034639,0.47384566,0.7379613,0.2870885,-0.4913528
935,1715847739.404382,0.46468863,0.3034639,0.47384566,0.7379613,0.2870885,-0.4913528
936,1715847739.405446,0.46468863,0.3034639,0.47384566,0.7379613,0.2870885,-0.4913528
937,1715847739.4065108,0.46029326,0.30779824,0.4999737,0.6506097,0.2732401,-0.5052012
938,1715847739.407575,0.46029326,0.30779824,0.4999737,0.6506097,0.2732401,-0.5052012
939,1715847739.408639,0.46029326,0.30779824,0.4999737,0.6506097,0.2732401,-0.5052012
940,1715847739.4097214,0.46029326,0.30779824,0.4999737,0.6506097,0.2732401,-0.5052012
941,1715847739.4107847,0.46029326,0.30779824,0.4999737,0.6506097,0.2732401,-0.5052012
942,1715847739.4118474,0.44710714,0.30730984,0.5566252,0.5739107,0.22743376,-0.50839704
943,1715847739.4129128,0.44710714,0.30730984,0.5566252,0.5739107,0.22743376,-0.50839704
944,1715847739.4139764,0.44710714,0.30730984,0.5566252,0.5739107,0.22743376,-0.50839704
945,1715847739.4150395,0.44710714,0.30730984,0.5566252,0.5739107,0.22743376,-0.50839704
946,1715847739.4161038,0.44710714,0.30730984,0.5566252,0.5739107,0.22743376,-0.50839704
947,1715847739.417168,0.44710714,0.30730984,0.5566252,0.5739107,0.22743376,-0.50839704
948,1715847739.4182322,0.44710714,0.30730984,0.5566252,0.5739107,0.22743376,-0.50839704
949,1715847739.4192958,0.44710714,0.30730984,0.5566252,0.5739107,0.22743376,-0.50839704
950,1715847739.4203582,0.4242146,0.32916462,0.5542444,0.538757,0.18908428,-0.4423507
951,1715847739.4214232,0.4242146,0.32916462,0.5542444,0.538757,0.18908428,-0.4423507
952,1715847739.4224873,0.4242146,0.32916462,0.5542444,0.538757,0.18908428,-0.4423507
953,1715847739.423551,0.4242146,0.32916462,0.5542444,0.538757,0.18908428,-0.4423507
954,1715847739.4246144,0.4242146,0.32916462,0.5542444,0.538757,0.18908428,-0.4423507
955,1715847739.4256787,0.4242146,0.32916462,0.5542444,0.538757,0.18908428,-0.4423507
956,1715847739.4267454,0.4242146,0.32916462,0.5542444,0.538757,0.18908428,-0.4423507
957,1715847739.4278107,0.4242146,0.32916462,0.5542444,0.538757,0.18908428,-0.4423507
958,1715847739.4288874,0.4242146,0.32916462,0.5542444,0.538757,0.18908428,-0.4423507
959,1715847739.429959,0.4242146,0.32916462,0.5542444,0.538757,0.18908428,-0.4423507
960,1715847739.4310753,0.4242146,0.32916462,0.5542444,0.538757,0.18908428,-0.4423507
961,1715847739.432172,0.4242146,0.32916462,0.5542444,0.4514054,0.12516846,-0.31238854
962,1715847739.43326,0.49399114,0.3689061,0.5445379,0.4514054,0.12516846,-0.31238854
963,1715847739.4343534,0.49399114,0.3689061,0.5445379,0.4514054,0.12516846,-0.31238854
964,1715847739.4354177,0.49399114,0.3689061,0.5445379,0.4514054,0.12516846,-0.31238854
965,1715847739.4365134,0.49399114,0.3689061,0.5445379,0.4514054,0.12516846,-0.31238854
966,1715847739.4376116,0.49399114,0.3689061,0.5445379,0.4514054,0.12516846,-0.31238854
967,1715847739.4387054,0.49399114,0.3689061,0.5445379,0.4514054,0.12516846,-0.31238854
968,1715847739.4398105,0.49399114,0.3689061,0.5445379,0.4514054,0.12516846,-0.31238854
969,1715847739.4409196,0.49399114,0.3689061,0.5445379,0.4514054,0.12516846,-0.31238854
970,1715847739.4419825,0.49399114,0.3689061,0.5445379,0.4514054,0.12516846,-0.31238854
971,1715847739.4430504,0.49399114,0.3689061,0.5445379,0.4514054,0.12516846,-0.31238854
972,1715847739.4441175,0.5408751,0.39314172,0.53483146,0.38642433,0.10599372,-0.27190852
973,1715847739.4451864,0.5408751,0.39314172,0.53483146,0.38642433,0.10599372,-0.27190852
974,1715847739.4462516,0.5408751,0.39314172,0.53483146,0.38642433,0.10599372,-0.27190852
975,1715847739.447315,0.5408751,0.39314172,0.53483146,0.38642433,0.10599372,-0.27190852
976,1715847739.448379,0.5408751,0.39314172,0.53483146,0.38642433,0.10599372,-0.27190852
977,1715847739.4494433,0.5408751,0.39314172,0.53483146,0.38642433,0.10599372,-0.27190852
978,1715847739.4505086,0.5408751,0.39314172,0.53483146,0.38642433,0.10599372,-0.27190852
979,1715847739.4515774,0.5408751,0.39314172,0.53483146,0.38642433,0.10599372,-0.27190852
980,1715847739.4526415,0.5408751,0.39314172,0.53483146,0.38642433,0.10599372,-0.27190852
981,1715847739.453708,0.5408751,0.39314172,0.53483146,0.38642433,0.10599372,-0.27190852
982,1715847739.4547722,0.57945675,0.4285489,0.540692,0.38642433,0.10599372,-0.27190852
983,1715847739.455835,0.57945675,0.4285489,0.540692,0.32250854,0.10812425,-0.26551694
984,1715847739.4568992,0.57945675,0.4285489,0.540692,0.32250854,0.10812425,-0.26551694
985,1715847739.457963,0.57945675,0.4285489,0.540692,0.32250854,0.10812425,-0.26551694
986,1715847739.459028,0.57945675,0.4285489,0.540692,0.32250854,0.10812425,-0.26551694
987,1715847739.4600928,0.57945675,0.4285489,0.540692,0.32250854,0.10812425,-0.26551694
988,1715847739.461157,0.57945675,0.4285489,0.540692,0.32250854,0.10812425,-0.26551694
989,1715847739.4622216,0.57945675,0.4285489,0.540692,0.32250854,0.10812425,-0.26551694
990,1715847739.4632847,0.57945675,0.4285489,0.540692,0.32250854,0.10812425,-0.26551694
991,1715847739.4643486,0.57945675,0.4285489,0.540692,0.32250854,0.10812425,-0.26551694
992,1715847739.465413,0.57945675,0.4285489,0.540692,0.32250854,0.10812425,-0.26551694
993,1715847739.4664783,0.57945675,0.4285489,0.540692,0.32250854,0.10812425,-0.26551694
994,1715847739.467543,0.57945675,0.4285489,0.540692,0.32250854,0.10812425,-0.26551694
995,1715847739.468615,0.57945675,0.4285489,0.540692,0.32250854,0.10812425,-0.26551694
996,1715847739.4696805,0.57945675,0.4285489,0.540692,0.32250854,0.10812425,-0.26551694
997,1715847739.470745,0.57945675,0.4285489,0.540692,0.32250854,0.10812425,-0.26551694
998,1715847739.4718149,0.57945675,0.4285489,0.540692,0.32250854,0.10812425,-0.26551694
999,1715847739.4728801,0.57945675,0.4285489,0.540692,0.32250854,0.10812425,-0.26551694
1000,1715847739.4739451,0.57945675,0.4285489,0.540692,0.32250854,0.10812425,-0.26551694
1001,1715847739.4750094,0.57945675,0.4285489,0.540692,0.32250854,0.10812425,-0.26551694
1002,1715847739.4760742,0.57945675,0.4285489,0.540692,0.32250854,0.10812425,-0.26551694
1003,1715847739.4771388,0.57945675,0.4285489,0.540692,0.32250854,0.10812425,-0.26551694
1004,1715847739.478203,0.57945675,0.4285489,0.540692,0.32250854,0.10812425,-0.26551694
1005,1715847739.479228,0.57945675,0.4285489,0.540692,0.32250854,0.10812425,-0.26551694
1006,1715847739.480293,0.57945675,0.4285489,0.540692,0.32250854,0.10812425,-0.26551694
1007,1715847739.4813588,0.57945675,0.4285489,0.540692,0.32250854,0.10812425,-0.26551694
1008,1715847739.4824607,0.57945675,0.4285489,0.540692,0.32250854,0.10812425,-0.26551694
1009,1715847739.4835544,0.6433728,0.691844,0.6075382,0.22237375,0.305198,-0.2569948
1010,1715847739.4846575,0.6433728,0.691844,0.6075382,0.22237375,0.305198,-0.2569948
1011,1715847739.4857557,0.6433728,0.691844,0.6075382,0.22237375,0.305198,-0.2569948
1012,1715847739.486853,0.6433728,0.691844,0.6075382,0.22237375,0.305198,-0.2569948
1013,1715847739.4879513,0.6433728,0.691844,0.6075382,0.22237375,0.305198,-0.2569948
1014,1715847739.4890485,0.6433728,0.691844,0.6075382,0.22237375,0.305198,-0.2569948
1015,1715847739.490145,0.6433728,0.691844,0.6075382,0.22237375,0.305198,-0.2569948
1016,1715847739.491245,0.6433728,0.691844,0.6075382,0.22237375,0.305198,-0.2569948
1017,1715847739.4923081,0.66095424,0.824743,0.6264017,0.2735064,0.32330748,-0.24421166
1018,1715847739.4934125,0.66095424,0.824743,0.6264017,0.2735064,0.32330748,-0.24421166
1019,1715847739.4945085,0.66095424,0.824743,0.6264017,0.2735064,0.32330748,-0.24421166
1020,1715847739.495598,0.66095424,0.824743,0.6264017,0.2735064,0.32330748,-0.24421166
1021,1715847739.4966917,0.66095424,0.824743,0.6264017,0.2735064,0.32330748,-0.24421166
1022,1715847739.4977875,0.66095424,0.824743,0.6264017,0.2735064,0.32330748,-0.24421166
1023,1715847739.498883,0.66095424,0.824743,0.6264017,0.2735064,0.32330748,-0.24421166
1024,1715847739.4999478,0.66095424,0.824743,0.6264017,0.2735064,0.32330748,-0.24421166
1025,1715847739.5010414,0.66095424,0.824743,0.6264017,0.2735064,0.32330748,-0.24421166
1026,1715847739.5021486,0.66095424,0.824743,0.6264017,0.2735064,0.32330748,-0.24421166
1027,1715847739.50324,0.66095424,0.824743,0.6264017,0.2735064,0.32330748,-0.24421166
1028,1715847739.5043395,0.66095424,0.824743,0.6264017,0.2735064,0.32330748,-0.24421166
1029,1715847739.5054379,0.66095424,0.824743,0.6264017,0.2735064,0.32330748,-0.24421166
1030,1715847739.5065598,0.66095424,0.824743,0.6264017,0.2735064,0.32330748,-0.24421166
1031,1715847739.5076435,0.74782395,0.947386,0.6738962,0.36192328,0.27963167,-0.2612559
1032,1715847739.508739,0.74782395,0.947386,0.6738962,0.36192328,0.27963167,-0.2612559
1033,1715847739.5098329,0.74782395,0.947386,0.6738962,0.36192328,0.27963167,-0.2612559
1034,1715847739.5109298,0.74782395,0.947386,0.6738962,0.36192328,0.27963167,-0.2612559
1035,1715847739.5120552,0.74782395,0.947386,0.6738962,0.36192328,0.27963167,-0.2612559
1036,1715847739.5131435,0.8122894,1.0778433,0.69178295,0.49721175,0.21252008,-0.3603254
1037,1715847739.514213,0.8122894,1.0778433,0.69178295,0.49721175,0.21252008,-0.3603254
1038,1715847739.5152566,0.8122894,1.0778433,0.69178295,0.49721175,0.21252008,-0.3603254
1039,1715847739.5163524,0.8122894,1.0778433,0.69178295,0.49721175,0.21252008,-0.3603254
1040,1715847739.5174508,0.8122894,1.0778433,0.69178295,0.49721175,0.21252008,-0.3603254
1041,1715847739.5185401,0.8122894,1.0778433,0.69178295,0.49721175,0.21252008,-0.3603254
1042,1715847739.5196295,0.8122894,1.0778433,0.69178295,0.49721175,0.21252008,-0.3603254
1043,1715847739.520692,0.8122894,1.0778433,0.69178295,0.49721175,0.21252008,-0.3603254
1044,1715847739.5217586,0.8122894,1.0778433,0.69178295,0.49721175,0.21252008,-0.3603254
1045,1715847739.5228243,0.82889414,1.2223412,0.66125953,0.63463074,0.10705899,-0.5147886
1046,1715847739.5238886,0.82889414,1.2223412,0.66125953,0.63463074,0.10705899,-0.5147886
1047,1715847739.5249536,0.82889414,1.2223412,0.66125953,0.63463074,0.10705899,-0.5147886
1048,1715847739.5260186,0.82889414,1.2223412,0.66125953,0.63463074,0.10705899,-0.5147886
1049,1715847739.527083,0.82889414,1.2223412,0.66125953,0.63463074,0.10705899,-0.5147886
1050,1715847739.5281475,0.82889414,1.2223412,0.66125953,0.63463074,0.10705899,-0.5147886
1051,1715847739.529212,0.82889414,1.2223412,0.66125953,0.63463074,0.10705899,-0.5147886
1052,1715847739.5302758,0.82889414,1.2223412,0.66125953,0.63463074,0.10705899,-0.5147886
1053,1715847739.5313394,0.82889414,1.2223412,0.66125953,0.63463074,0.10705899,-0.5147886
1054,1715847739.5324035,0.82889414,1.2223412,0.66125953,0.63463074,0.10705899,-0.5147886
1055,1715847739.533467,0.82889414,1.2223412,0.66125953,0.63463074,0.10705899,-0.5147886
1056,1715847739.5345309,0.8371965,1.2940712,0.6438611,0.63463074,0.10705899,-0.5147886
1057,1715847739.5356035,0.8371965,1.2940712,0.6438611,0.66339284,0.033555802,-0.59468335
1058,1715847739.536669,0.8371965,1.2940712,0.6438611,0.66339284,0.033555802,-0.59468335
1059,1715847739.537734,0.8371965,1.2940712,0.6438611,0.66339284,0.033555802,-0.59468335
1060,1715847739.538799,0.8371965,1.2940712,0.6438611,0.66339284,0.033555802,-0.59468335
1061,1715847739.5398638,0.8371965,1.2940712,0.6438611,0.66339284,0.033555802,-0.59468335
1062,1715847739.5409274,0.8371965,1.2940712,0.6438611,0.66339284,0.033555802,-0.59468335
1063,1715847739.541992,0.8371965,1.2940712,0.6438611,0.66339284,0.033555802,-0.59468335
1064,1715847739.543056,0.8371965,1.2940712,0.6438611,0.66339284,0.033555802,-0.59468335
1065,1715847739.5441203,0.8371965,1.2940712,0.6438611,0.66339284,0.033555802,-0.59468335
1066,1715847739.5451856,0.8371965,1.2940712,0.6438611,0.66339284,0.033555802,-0.59468335
1067,1715847739.5462503,0.8371965,1.2940712,0.6438611,0.66339284,0.033555802,-0.59468335
1068,1715847739.547315,0.8371965,1.2940712,0.6438611,0.66339284,0.033555802,-0.59468335
1069,1715847739.5483804,0.8371965,1.2940712,0.6438611,0.66339284,0.033555802,-0.59468335
1070,1715847739.5494475,0.8371965,1.2940712,0.6438611,0.66339284,0.033555802,-0.59468335
1071,1715847739.5505128,0.8371965,1.2940712,0.6438611,0.66339284,0.033555802,-0.59468335
1072,1715847739.5515783,0.8371965,1.2940712,0.6438611,0.66339284,0.033555802,-0.59468335
1073,1715847739.552644,0.8371965,1.2940712,0.6438611,0.66339284,0.033555802,-0.59468335
1074,1715847739.55371,0.8371965,1.2940712,0.6438611,0.66339284,0.033555802,-0.59468335
1075,1715847739.5547755,0.8371965,1.2940712,0.6438611,0.66339284,0.033555802,-0.59468335
1076,1715847739.555849,0.8371965,1.2940712,0.6438611,0.66339284,0.033555802,-0.59468335
1077,1715847739.5569136,0.8371965,1.2940712,0.6438611,0.66339284,0.033555802,-0.59468335
1078,1715847739.5579784,0.8371965,1.2940712,0.6438611,0.66339284,0.033555802,-0.59468335
1079,1715847739.559043,0.8371965,1.2940712,0.6438611,0.66339284,0.033555802,-0.59468335
1080,1715847739.5601075,0.8371965,1.2940712,0.6438611,0.66339284,0.033555802,-0.59468335
1081,1715847739.5611725,0.8371965,1.2940712,0.6438611,0.66339284,0.033555802,-0.59468335
1082,1715847739.562237,0.8371965,1.2940712,0.6438611,0.66339284,0.033555802,-0.59468335
1083,1715847739.5633051,0.8371965,1.2940712,0.6438611,0.66339284,0.033555802,-0.59468335
1084,1715847739.5643713,0.8371965,1.2940712,0.6438611,0.66339284,0.033555802,-0.59468335
1085,1715847739.5654364,0.8371965,1.2940712,0.6438611,0.66339284,0.033555802,-0.59468335
1086,1715847739.5665016,0.8371965,1.2940712,0.6438611,0.66339284,0.033555802,-0.59468335
1087,1715847739.5675976,0.8371965,1.2940712,0.6438611,0.66339284,0.033555802,-0.59468335
1088,1715847739.568664,0.8371965,1.2940712,0.6438611,0.66339284,0.033555802,-0.59468335
1089,1715847739.56973,0.8371965,1.2940712,0.6438611,0.66339284,0.033555802,-0.59468335
1090,1715847739.5707965,0.8371965,1.2940712,0.6438611,0.66339284,0.033555802,-0.59468335
1091,1715847739.5718617,0.8371965,1.2940712,0.6438611,0.66339284,0.033555802,-0.59468335
1092,1715847739.572927,0.8371965,1.2940712,0.6438611,0.66339284,0.033555802,-0.59468335
1093,1715847739.5740287,0.88108915,1.7508848,1.1112359,0.8870982,-0.17310533,-0.95154667
1094,1715847739.575093,0.88108915,1.7508848,1.1112359,0.8870982,-0.17310533,-0.95154667
1095,1715847739.5761573,0.88108915,1.7508848,1.1112359,0.8870982,-0.17310533,-0.95154667
1096,1715847739.5772283,0.88108915,1.7508848,1.1112359,0.8870982,-0.17310533,-0.95154667
1097,1715847739.5782928,0.88108915,1.7508848,1.1112359,0.8870982,-0.17310533,-0.95154667
1098,1715847739.5793586,0.88108915,1.7508848,1.1112359,0.8870982,-0.17310533,-0.95154667
1099,1715847739.5804234,0.88108915,1.7508848,1.1112359,0.8870982,-0.17310533,-0.95154667
1100,1715847739.5814877,0.88108915,1.7508848,1.1112359,0.8870982,-0.17310533,-0.95154667
1101,1715847739.5825648,0.88108915,1.7508848,1.1112359,0.8870982,-0.17310533,-0.95154667
1102,1715847739.5836306,0.88108915,1.7508848,1.1112359,0.8870982,-0.17310533,-0.95154667
1103,1715847739.5846992,0.9186941,1.9215108,1.5016304,1.4857763,-0.4862928,-1.1262499
1104,1715847739.5857646,0.9186941,1.9215108,1.5016304,1.4857763,-0.4862928,-1.1262499
1105,1715847739.5868254,0.9186941,1.9215108,1.5016304,1.4857763,-0.4862928,-1.1262499
1106,1715847739.587889,0.9186941,1.9215108,1.5016304,1.4857763,-0.4862928,-1.1262499
1107,1715847739.588953,0.9186941,1.9215108,1.5016304,1.4857763,-0.4862928,-1.1262499
1108,1715847739.5900183,0.9186941,1.9215108,1.5016304,1.4857763,-0.4862928,-1.1262499
1109,1715847739.5911348,0.9186941,1.9215108,1.5016304,1.4857763,-0.4862928,-1.1262499
1110,1715847739.5922334,0.97681063,2.0567906,1.7626667,1.4857763,-0.4862928,-1.1262499
1111,1715847739.5933337,0.97681063,2.0567906,1.7626667,1.4857763,-0.4862928,-1.1262499
1112,1715847739.5944307,0.97681063,2.0567906,1.7626667,1.4857763,-0.4862928,-1.1262499
1113,1715847739.5955184,0.97681063,2.0567906,1.7626667,1.4857763,-0.4862928,-1.1262499
1114,1715847739.5966184,0.97681063,2.0567906,1.7626667,1.4857763,-0.4862928,-1.1262499
1115,1715847739.5977263,0.97681063,2.0567906,1.7626667,1.4857763,-0.4862928,-1.1262499
1116,1715847739.5988247,0.97681063,2.0567906,1.7626667,1.4857763,-0.4862928,-1.1262499
1117,1715847739.5999222,0.97681063,2.0567906,1.7626667,1.4857763,-0.4862928,-1.1262499
1118,1715847739.6009843,0.97681063,2.0567906,1.7626667,1.4857763,-0.4862928,-1.1262499
1119,1715847739.602079,0.97681063,2.0567906,1.7626667,1.4857763,-0.4862928,-1.1262499
1120,1715847739.6031766,0.97681063,2.0567906,1.7626667,1.4857763,-0.4862928,-1.1262499
1121,1715847739.6042764,0.97681063,2.0567906,1.7626667,1.4857763,-0.4862928,-1.1262499
1122,1715847739.605375,0.97681063,2.0567906,1.7626667,1.4857763,-0.4862928,-1.1262499
1123,1715847739.6064754,0.97681063,2.0567906,1.7626667,1.4857763,-0.4862928,-1.1262499
1124,1715847739.607538,0.97681063,2.0567906,1.7626667,1.4857763,-0.4862928,-1.1262499
1125,1715847739.608635,0.97681063,2.0567906,1.7626667,1.4857763,-0.4862928,-1.1262499
1126,1715847739.6097324,0.97681063,2.0567906,1.7626667,1.4857763,-0.4862928,-1.1262499
1127,1715847739.6108263,0.97681063,2.0567906,1.7626667,1.4857763,-0.4862928,-1.1262499
1128,1715847739.6119232,0.97681063,2.0567906,1.7626667,1.4857763,-0.4862928,-1.1262499
1129,1715847739.6130202,0.97681063,2.0567906,1.7626667,1.4857763,-0.4862928,-1.1262499
1130,1715847739.6141038,1.0910293,2.1251628,1.8062543,4.0083203,-1.6410384,-1.6130753
1131,1715847739.615201,1.0910293,2.1251628,1.8062543,4.0083203,-1.6410384,-1.6130753
1132,1715847739.6162982,1.0910293,2.1251628,1.8062543,4.0083203,-1.6410384,-1.6130753
1133,1715847739.617398,1.0910293,2.1251628,1.8062543,4.0083203,-1.6410384,-1.6130753
1134,1715847739.6185243,1.0910293,2.1251628,1.8062543,4.0083203,-1.6410384,-1.6130753
1135,1715847739.619607,1.0910293,2.1251628,1.8062543,4.0083203,-1.6410384,-1.6130753
1136,1715847739.620701,1.0910293,2.1251628,1.8062543,4.0083203,-1.6410384,-1.6130753
1137,1715847739.6217685,1.0910293,2.1251628,1.8062543,4.0083203,-1.6410384,-1.6130753
1138,1715847739.6228683,1.1174016,2.0961046,1.7113264,4.391815,-1.8423733,-1.7472985
1139,1715847739.623969,1.1174016,2.0961046,1.7113264,4.391815,-1.8423733,-1.7472985
1140,1715847739.6250658,1.1174016,2.0961046,1.7113264,4.391815,-1.8423733,-1.7472985
1141,1715847739.6261625,1.1174016,2.0961046,1.7113264,4.391815,-1.8423733,-1.7472985
1142,1715847739.6272638,1.1174016,2.0961046,1.7113264,4.391815,-1.8423733,-1.7472985
1143,1715847739.6283627,1.1174016,2.0961046,1.7113264,4.391815,-1.8423733,-1.7472985
1144,1715847739.6294591,1.1174016,2.0961046,1.7113264,4.391815,-1.8423733,-1.7472985
1145,1715847739.6305563,1.1174016,2.0961046,1.7113264,4.391815,-1.8423733,-1.7472985
1146,1715847739.6316578,1.1174016,2.0961046,1.7113264,4.391815,-1.8423733,-1.7472985
1147,1715847739.6327574,1.1174016,2.0961046,1.7113264,4.391815,-1.8423733,-1.7472985
1148,1715847739.6338549,1.1174016,2.0961046,1.7113264,4.391815,-1.8423733,-1.7472985
1149,1715847739.6349192,1.1174016,2.0961046,1.7113264,4.391815,-1.8423733,-1.7472985
1150,1715847739.6359854,1.1174016,2.0961046,1.7113264,4.391815,-1.8423733,-1.7472985
1151,1715847739.6370828,1.1174016,2.0961046,1.7113264,4.391815,-1.8423733,-1.7472985
1152,1715847739.6381812,1.1174016,2.0961046,1.7113264,4.391815,-1.8423733,-1.7472985
1153,1715847739.639261,1.1174016,2.0961046,1.7113264,4.391815,-1.8423733,-1.7472985
1154,1715847739.6403675,1.1174016,2.0961046,1.7113264,4.391815,-1.8423733,-1.7472985
1155,1715847739.6414704,1.1174016,2.0961046,1.7113264,4.391815,-1.8423733,-1.7472985
1156,1715847739.6425712,1.1174016,2.0961046,1.7113264,4.391815,-1.8423733,-1.7472985
1157,1715847739.6436708,1.1174016,2.0961046,1.7113264,4.391815,-1.8423733,-1.7472985
1158,1715847739.644744,1.1174016,2.0961046,1.7113264,4.391815,-1.8423733,-1.7472985
1159,1715847739.6458151,1.1174016,2.0961046,1.7113264,4.391815,-1.8423733,-1.7472985
1160,1715847739.6469252,1.1174016,2.0961046,1.7113264,4.391815,-1.8423733,-1.7472985
1161,1715847739.6480272,1.1174016,2.0961046,1.7113264,4.391815,-1.8423733,-1.7472985
1162,1715847739.6491272,1.1174016,2.0961046,1.7113264,4.391815,-1.8423733,-1.7472985
1163,1715847739.6502266,1.1174016,2.0961046,1.7113264,4.391815,-1.8423733,-1.7472985
1164,1715847739.651366,1.1174016,2.0961046,1.7113264,4.391815,-1.8423733,-1.7472985
1165,1715847739.6524665,1.1174016,2.0961046,1.7113264,4.391815,-1.8423733,-1.7472985
1166,1715847739.653742,1.1174016,2.0961046,1.7113264,4.391815,-1.8423733,-1.7472985
1167,1715847739.6548424,1.1174016,2.0961046,1.7113264,4.391815,-1.8423733,-1.7472985
1168,1715847739.6559422,1.1174016,2.0961046,1.7113264,4.391815,-1.8423733,-1.7472985
1169,1715847739.657041,1.1174016,2.0961046,1.7113264,4.391815,-1.8423733,-1.7472985
1170,1715847739.6581435,1.1174016,2.0961046,1.7113264,4.391815,-1.8423733,-1.7472985
1171,1715847739.6592455,1.1174016,2.0961046,1.7113264,4.391815,-1.8423733,-1.7472985
1172,1715847739.6603453,1.1174016,2.0961046,1.7113264,4.391815,-1.8423733,-1.7472985
1173,1715847739.6614454,1.1174016,2.0961046,1.7113264,4.391815,-1.8423733,-1.7472985
1174,1715847739.6625242,1.1174016,2.0961046,1.7113264,4.391815,-1.8423733,-1.7472985
1175,1715847739.6635945,1.0089823,1.787696,1.14414,4.843487,-2.399506,-2.8786085
1176,1715847739.664696,1.0089823,1.787696,1.14414,4.6890235,-2.2972407,-3.2099054
1177,1715847739.6657963,1.0089823,1.787696,1.14414,4.6890235,-2.2972407,-3.2099054
1178,1715847739.6668985,1.0089823,1.787696,1.14414,4.6890235,-2.2972407,-3.2099054
1179,1715847739.6679714,1.0089823,1.787696,1.14414,4.6890235,-2.2972407,-3.2099054
1180,1715847739.6690705,1.0089823,1.787696,1.14414,4.6890235,-2.2972407,-3.2099054
1181,1715847739.6701372,1.0089823,1.787696,1.14414,4.6890235,-2.2972407,-3.2099054
1182,1715847739.6712468,0.8972056,1.6373986,1.1814396,4.6890235,-2.2972407,-3.2099054
1183,1715847739.6723497,0.8972056,1.6373986,1.1814396,4.6890235,-2.2972407,-3.2099054
1184,1715847739.6734505,0.8972056,1.6373986,1.1814396,4.6890235,-2.2972407,-3.2099054
1185,1715847739.674551,0.8972056,1.6373986,1.1814396,4.6890235,-2.2972407,-3.2099054
1186,1715847739.6756396,0.8972056,1.6373986,1.1814396,4.6325645,-2.1662133,-3.3973918
1187,1715847739.6767318,0.8972056,1.6373986,1.1814396,4.6325645,-2.1662133,-3.3973918
1188,1715847739.6778336,0.8972056,1.6373986,1.1814396,4.6325645,-2.1662133,-3.3973918
1189,1715847739.6789384,0.8972056,1.6373986,1.1814396,4.6325645,-2.1662133,-3.3973918
1190,1715847739.6800048,0.8972056,1.6373986,1.1814396,4.6325645,-2.1662133,-3.3973918
1191,1715847739.6811068,0.7463588,1.305731,1.2894926,4.6815667,-2.014946,-3.657316
1192,1715847739.6822114,0.7463588,1.305731,1.2894926,4.6815667,-2.014946,-3.657316
1193,1715847739.683265,0.7463588,1.305731,1.2894926,4.6815667,-2.014946,-3.657316
1194,1715847739.6843653,0.7463588,1.305731,1.2894926,4.6815667,-2.014946,-3.657316
1195,1715847739.685473,0.7463588,1.305731,1.2894926,4.6815667,-2.014946,-3.657316
1196,1715847739.6865768,0.7463588,1.305731,1.2894926,4.6815667,-2.014946,-3.657316
1197,1715847739.6876776,0.7463588,1.305731,1.2894926,4.6815667,-2.014946,-3.657316
1198,1715847739.6887724,0.7463588,1.305731,1.2894926,4.6815667,-2.014946,-3.657316
1199,1715847739.6898744,0.7463588,1.305731,1.2894926,4.6815667,-2.014946,-3.657316
1200,1715847739.690977,0.7463588,1.305731,1.2894926,4.6815667,-2.014946,-3.657316
1201,1715847739.692082,0.7463588,1.305731,1.2894926,4.6815667,-2.014946,-3.657316
1202,1715847739.6931882,0.519875,1.054096,1.2565273,4.7902236,-1.9947059,-3.7872782
1203,1715847739.6942863,0.519875,1.054096,1.2565273,4.7902236,-1.9947059,-3.7872782
1204,1715847739.695353,0.519875,1.054096,1.2565273,4.7902236,-1.9947059,-3.7872782
1205,1715847739.6964443,0.519875,1.054096,1.2565273,4.7902236,-1.9947059,-3.7872782
1206,1715847739.697549,0.519875,1.054096,1.2565273,4.7902236,-1.9947059,-3.7872782
1207,1715847739.6986516,0.519875,1.054096,1.2565273,4.7902236,-1.9947059,-3.7872782
1208,1715847739.6997209,0.519875,1.054096,1.2565273,4.7902236,-1.9947059,-3.7872782
1209,1715847739.7008262,0.519875,1.054096,1.2565273,4.7902236,-1.9947059,-3.7872782
1210,1715847739.7019255,0.519875,1.054096,1.2565273,4.7902236,-1.9947059,-3.7872782
1211,1715847739.703031,0.519875,1.054096,1.2565273,4.7902236,-1.9947059,-3.7872782
1212,1715847739.704133,0.519875,1.054096,1.2565273,4.7902236,-1.9947059,-3.7872782
1213,1715847739.7052424,0.519875,1.054096,1.2565273,4.7902236,-1.9947059,-3.7872782
1214,1715847739.7063437,0.519875,1.054096,1.2565273,4.7902236,-1.9947059,-3.7872782
1215,1715847739.7074118,0.519875,1.054096,1.2565273,4.7902236,-1.9947059,-3.7872782
1216,1715847739.7085135,0.519875,1.054096,1.2565273,4.7902236,-1.9947059,-3.7872782
1217,1715847739.7095807,0.519875,1.054096,1.2565273,4.7902236,-1.9947059,-3.7872782
1218,1715847739.7106473,0.18692546,0.5643171,1.1984107,4.8956847,-1.9819227,-3.8245623
1219,1715847739.7117498,0.18692546,0.5643171,1.1984107,5.0490828,-2.0128155,-3.8597162
1220,1715847739.7128525,0.18692546,0.5643171,1.1984107,5.0490828,-2.0128155,-3.8597162
1221,1715847739.713932,0.18692546,0.5643171,1.1984107,5.0490828,-2.0128155,-3.8597162
1222,1715847739.7150297,0.18692546,0.5643171,1.1984107,5.0490828,-2.0128155,-3.8597162
1223,1715847739.7161005,0.18692546,0.5643171,1.1984107,5.0490828,-2.0128155,-3.8597162
1224,1715847739.7171652,0.18692546,0.5643171,1.1984107,5.0490828,-2.0128155,-3.8597162
1225,1715847739.718237,0.18692546,0.5643171,1.1984107,5.0490828,-2.0128155,-3.8597162
1226,1715847739.7192686,0.18692546,0.5643171,1.1984107,5.0490828,-2.0128155,-3.8597162
1227,1715847739.7203715,0.18692546,0.5643171,1.1984107,5.0490828,-2.0128155,-3.8597162
1228,1715847739.7214792,0.18692546,0.5643171,1.1984107,5.0490828,-2.0128155,-3.8597162
1229,1715847739.7225847,0.18692546,0.5643171,1.1984107,5.0490828,-2.0128155,-3.8597162
1230,1715847739.7236636,0.18692546,0.5643171,1.1984107,5.0490828,-2.0128155,-3.8597162
1231,1715847739.724743,0.18692546,0.5643171,1.1984107,5.0490828,-2.0128155,-3.8597162
1232,1715847739.7258277,0.18692546,0.5643171,1.1984107,5.0490828,-2.0128155,-3.8597162
1233,1715847739.726903,0.18692546,0.5643171,1.1984107,5.0490828,-2.0128155,-3.8597162
1234,1715847739.7279792,0.18692546,0.5643171,1.1984107,5.0490828,-2.0128155,-3.8597162
1235,1715847739.7290614,0.18692546,0.5643171,1.1984107,5.0490828,-2.0128155,-3.8597162
1236,1715847739.7301693,0.18692546,0.5643171,1.1984107,5.0490828,-2.0128155,-3.8597162
1237,1715847739.7312665,0.18692546,0.5643171,1.1984107,5.0490828,-2.0128155,-3.8597162
1238,1715847739.7323716,0.18692546,0.5643171,1.1984107,5.0490828,-2.0128155,-3.8597162
1239,1715847739.7334764,0.18692546,0.5643171,1.1984107,5.0490828,-2.0128155,-3.8597162
1240,1715847739.7345462,0.18692546,0.5643171,1.1984107,5.0490828,-2.0128155,-3.8597162
1241,1715847739.735622,0.18692546,0.5643171,1.1984107,5.0490828,-2.0128155,-3.8597162
1242,1715847739.7367249,0.18692546,0.5643171,1.1984107,5.0490828,-2.0128155,-3.8597162
1243,1715847739.7378228,0.18692546,0.5643171,1.1984107,5.0490828,-2.0128155,-3.8597162
1244,1715847739.7389224,0.18692546,0.5643171,1.1984107,5.0490828,-2.0128155,-3.8597162
1245,1715847739.7400384,0.18692546,0.5643171,1.1984107,5.0490828,-2.0128155,-3.8597162
1246,1715847739.7411084,0.18692546,0.5643171,1.1984107,5.0490828,-2.0128155,-3.8597162
1247,1715847739.7421753,0.18692546,0.5643171,1.1984107,5.0490828,-2.0128155,-3.8597162
1248,1715847739.7432256,0.18692546,0.5643171,1.1984107,5.0490828,-2.0128155,-3.8597162
1249,1715847739.7442899,0.18692546,0.5643171,1.1984107,5.0490828,-2.0128155,-3.8597162
1250,1715847739.745354,0.18692546,0.5643171,1.1984107,5.0490828,-2.0128155,-3.8597162
1251,1715847739.74646,0.18692546,0.5643171,1.1984107,5.0490828,-2.0128155,-3.8597162
1252,1715847739.7475312,0.18692546,0.5643171,1.1984107,5.0490828,-2.0128155,-3.8597162
1253,1715847739.748596,0.18692546,0.5643171,1.1984107,5.0490828,-2.0128155,-3.8597162
1254,1715847739.74966,0.18692546,0.5643171,1.1984107,5.0490828,-2.0128155,-3.8597162
1255,1715847739.750724,0.18692546,0.5643171,1.1984107,5.0490828,-2.0128155,-3.8597162
1256,1715847739.7517896,0.18692546,0.5643171,1.1984107,5.0490828,-2.0128155,-3.8597162
1257,1715847739.752854,0.18692546,0.5643171,1.1984107,5.0490828,-2.0128155,-3.8597162
1258,1715847739.7539175,0.18692546,0.5643171,1.1984107,5.0490828,-2.0128155,-3.8597162
1259,1715847739.7549808,0.18692546,0.5643171,1.1984107,5.0490828,-2.0128155,-3.8597162
1260,1715847739.7560458,0.18692546,0.5643171,1.1984107,5.0490828,-2.0128155,-3.8597162
1261,1715847739.7579834,0.18692546,0.5643171,1.1984107,5.0490828,-2.0128155,-3.8597162
1262,1715847739.7590718,0.03955836,0.065869555,0.93249065,5.364401,-1.9851186,-3.8320193
1263,1715847739.7601693,0.03955836,0.065869555,0.93249065,5.364401,-1.9851186,-3.8320193
1264,1715847739.7612689,0.03955836,0.065869555,0.93249065,5.364401,-1.9851186,-3.8320193
1265,1715847739.762365,0.03955836,0.065869555,0.93249065,5.364401,-1.9851186,-3.8320193
1266,1715847739.7634296,0.03955836,0.065869555,0.93249065,5.364401,-1.9851186,-3.8320193
1267,1715847739.764527,0.03955836,0.065869555,0.93249065,5.364401,-1.9851186,-3.8320193
1268,1715847739.7656224,0.21525119,-0.30993485,0.5334274,4.8690534,-1.433312,-3.6232276
1269,1715847739.7667184,0.21525119,-0.30993485,0.5334274,4.8690534,-1.433312,-3.6232276
1270,1715847739.7678168,0.21525119,-0.30993485,0.5334274,4.8690534,-1.433312,-3.6232276
1271,1715847739.7689207,0.21525119,-0.30993485,0.5334274,4.8690534,-1.433312,-3.6232276
1272,1715847739.7699828,0.21525119,-0.30993485,0.5334274,4.8690534,-1.433312,-3.6232276
1273,1715847739.7710817,0.21525119,-0.30993485,0.5334274,4.8690534,-1.433312,-3.6232276
1274,1715847739.772179,0.21525119,-0.30993485,0.5334274,4.8690534,-1.433312,-3.6232276
1275,1715847739.7732487,0.21525119,-0.30993485,0.5334274,4.8690534,-1.433312,-3.6232276
1276,1715847739.7743127,0.21525119,-0.30993485,0.5334274,4.8690534,-1.433312,-3.6232276
1277,1715847739.77537,0.21525119,-0.30993485,0.5334274,4.8690534,-1.433312,-3.6232276
1278,1715847739.7764628,0.21525119,-0.30993485,0.5334274,4.8690534,-1.433312,-3.6232276
1279,1715847739.7775595,0.21525119,-0.30993485,0.5334274,4.8690534,-1.433312,-3.6232276
1280,1715847739.778655,0.21525119,-0.30993485,0.5334274,4.8690534,-1.433312,-3.6232276
1281,1715847739.7797525,0.21525119,-0.30993485,0.5334274,4.8690534,-1.433312,-3.6232276
1282,1715847739.7808506,0.21525119,-0.30993485,0.5334274,4.8690534,-1.433312,-3.6232276
1283,1715847739.7819462,0.21525119,-0.30993485,0.5334274,4.8690534,-1.433312,-3.6232276
1284,1715847739.783038,0.21525119,-0.30993485,0.5334274,4.65387,-1.012533,-3.5816822
1285,1715847739.7841017,0.21525119,-0.30993485,0.5334274,4.65387,-1.012533,-3.5816822
1286,1715847739.785197,0.29192603,-0.54026467,0.33142334,4.4408174,-0.50546753,-3.5433328
1287,1715847739.7862926,0.29192603,-0.54026467,0.33142334,4.4408174,-0.50546753,-3.5433328
1288,1715847739.7873547,0.29192603,-0.54026467,0.33142334,4.4408174,-0.50546753,-3.5433328
1289,1715847739.7884514,0.29192603,-0.54026467,0.33142334,4.4408174,-0.50546753,-3.5433328
1290,1715847739.789513,0.29192603,-0.54026467,0.33142334,4.4408174,-0.50546753,-3.5433328
1291,1715847739.790619,0.29192603,-0.54026467,0.33142334,4.4408174,-0.50546753,-3.5433328
1292,1715847739.7916818,0.29192603,-0.54026467,0.33142334,4.4408174,-0.50546753,-3.5433328
1293,1715847739.7927446,0.2640887,-0.648867,0.14785548,4.2277646,-0.14221267,-3.4826128
1294,1715847739.7938406,0.2640887,-0.648867,0.14785548,4.2277646,-0.14221267,-3.4826128
1295,1715847739.7949364,0.2640887,-0.648867,0.14785548,4.2277646,-0.14221267,-3.4826128
1296,1715847739.796031,0.2640887,-0.648867,0.14785548,4.2277646,-0.14221267,-3.4826128
1297,1715847739.7971256,0.2640887,-0.648867,0.14785548,4.2277646,-0.14221267,-3.4826128
1298,1715847739.798222,0.2640887,-0.648867,0.14785548,4.2277646,-0.14221267,-3.4826128
1299,1715847739.7992578,0.2640887,-0.648867,0.14785548,4.2277646,-0.14221267,-3.4826128
1300,1715847739.8003495,0.2640887,-0.648867,0.14785548,4.2277646,-0.14221267,-3.4826128
1301,1715847739.801413,0.2640887,-0.648867,0.14785548,4.2277646,-0.14221267,-3.4826128
1302,1715847739.8024738,0.24015832,-0.7434286,0.026799569,3.9252298,0.13688636,-3.3920653
1303,1715847739.8035624,0.24015832,-0.7434286,0.026799569,3.9252298,0.13688636,-3.3920653
1304,1715847739.804651,0.24015832,-0.7434286,0.026799569,3.9252298,0.13688636,-3.3920653
1305,1715847739.8057168,0.24015832,-0.7434286,0.026799569,3.9252298,0.13688636,-3.3920653
1306,1715847739.80678,0.24015832,-0.7434286,0.026799569,3.9252298,0.13688636,-3.3920653
1307,1715847739.8078878,0.24015832,-0.7434286,0.026799569,3.9252298,0.13688636,-3.3920653
1308,1715847739.8089824,0.24015832,-0.7434286,0.026799569,3.9252298,0.13688636,-3.3920653
1309,1715847739.8100793,0.24015832,-0.7434286,0.026799569,3.9252298,0.13688636,-3.3920653
1310,1715847739.8111799,0.24015832,-0.7434286,0.026799569,3.9252298,0.13688636,-3.3920653
1311,1715847739.8122778,0.24015832,-0.7434286,0.026799569,3.9252298,0.13688636,-3.3920653
1312,1715847739.8133726,0.24015832,-0.7434286,0.026799569,3.9252298,0.13688636,-3.3920653
1313,1715847739.8144693,0.24015832,-0.7434286,0.026799569,3.9252298,0.13688636,-3.3920653
1314,1715847739.815557,0.24015832,-0.7434286,0.026799569,3.9252298,0.13688636,-3.3920653
1315,1715847739.8166187,0.24015832,-0.7434286,0.026799569,3.9252298,0.13688636,-3.3920653
1316,1715847739.8177145,0.24015832,-0.7434286,0.026799569,3.9252298,0.13688636,-3.3920653
1317,1715847739.8188097,0.24015832,-0.7434286,0.026799569,3.9252298,0.13688636,-3.3920653
1318,1715847739.8199058,0.24015832,-0.7434286,0.026799569,3.9252298,0.13688636,-3.3920653
1319,1715847739.8209987,0.24015832,-0.7434286,0.026799569,3.9252298,0.13688636,-3.3920653
1320,1715847739.8220928,0.24015832,-0.7434286,0.026799569,3.9252298,0.13688636,-3.3920653
1321,1715847739.8231885,0.24015832,-0.7434286,0.026799569,3.9252298,0.13688636,-3.3920653
1322,1715847739.8242466,0.24015832,-0.7434286,0.026799569,3.9252298,0.13688636,-3.3920653
1323,1715847739.825303,0.24015832,-0.7434286,0.026799569,3.9252298,0.13688636,-3.3920653
1324,1715847739.8263924,0.24015832,-0.7434286,0.026799569,3.9252298,0.13688636,-3.3920653
1325,1715847739.8274937,0.24015832,-0.7434286,0.026799569,3.9252298,0.13688636,-3.3920653
1326,1715847739.8285882,0.24015832,-0.7434286,0.026799569,3.9252298,0.13688636,-3.3920653
1327,1715847739.8296838,0.24015832,-0.7434286,0.026799569,3.9252298,0.13688636,-3.3920653
1328,1715847739.8307824,0.24015832,-0.7434286,0.026799569,3.9252298,0.13688636,-3.3920653
1329,1715847739.8318443,0.24015832,-0.7434286,0.026799569,3.9252298,0.13688636,-3.3920653
1330,1715847739.8329444,0.24015832,-0.7434286,0.026799569,3.9252298,0.13688636,-3.3920653
1331,1715847739.83404,0.24015832,-0.7434286,0.026799569,3.9252298,0.13688636,-3.3920653
1332,1715847739.8351283,0.24015832,-0.7434286,0.026799569,3.9252298,0.13688636,-3.3920653
1333,1715847739.8361895,0.24015832,-0.7434286,0.026799569,3.9252298,0.13688636,-3.3920653
1334,1715847739.8372762,0.256702,-1.0324243,0.3154291,3.2892675,-0.2295643,-3.00644
1335,1715847739.8383749,0.256702,-1.0324243,0.3154291,3.2892675,-0.2295643,-3.00644
1336,1715847739.8394387,0.256702,-1.0324243,0.3154291,3.2892675,-0.2295643,-3.00644
1337,1715847739.8405325,0.256702,-1.0324243,0.3154291,3.2892675,-0.2295643,-3.00644
1338,1715847739.8416278,0.256702,-1.0324243,0.3154291,3.2892675,-0.2295643,-3.00644
1339,1715847739.8427224,0.256702,-1.0324243,0.3154291,3.2892675,-0.2295643,-3.00644
1340,1715847739.843785,0.256702,-1.0324243,0.3154291,3.2892675,-0.2295643,-3.00644
1341,1715847739.8449159,0.256702,-1.0324243,0.3154291,3.2892675,-0.2295643,-3.00644
1342,1715847739.8460467,0.256702,-1.0324243,0.3154291,3.2892675,-0.2295643,-3.00644
1343,1715847739.84718,0.256702,-1.0324243,0.3154291,3.2892675,-0.2295643,-3.00644
1344,1715847739.8483148,0.256702,-1.0324243,0.3154291,3.2892675,-0.2295643,-3.00644
1345,1715847739.8493788,0.256702,-1.0324243,0.3154291,3.2892675,-0.2295643,-3.00644
1346,1715847739.850513,0.256702,-1.0324243,0.3154291,3.2892675,-0.2295643,-3.00644
1347,1715847739.8515735,0.256702,-1.0324243,0.3154291,3.2892675,-0.2295643,-3.00644
1348,1715847739.8527038,0.256702,-1.0324243,0.3154291,3.2892675,-0.2295643,-3.00644
1349,1715847739.8539548,0.256702,-1.0324243,0.3154291,3.2892675,-0.2295643,-3.00644
1350,1715847739.8550858,0.256702,-1.0324243,0.3154291,3.2892675,-0.2295643,-3.00644
1351,1715847739.8562665,0.256702,-1.0324243,0.3154291,3.2892675,-0.2295643,-3.00644
1352,1715847739.8574321,0.256702,-1.0324243,0.3154291,3.2892675,-0.2295643,-3.00644
1353,1715847739.8585973,0.256702,-1.0324243,0.3154291,3.2892675,-0.2295643,-3.00644
1354,1715847739.8597286,0.256702,-1.0324243,0.3154291,3.2892675,-0.2295643,-3.00644
1355,1715847739.860893,0.256702,-1.0324243,0.3154291,3.2892675,-0.2295643,-3.00644
1356,1715847739.862184,0.25572526,-1.0866951,0.28881264,3.2892675,-0.2295643,-3.00644
1357,1715847739.8633003,0.25572526,-1.0866951,0.28881264,3.642935,-0.77284867,-2.7081661
1358,1715847739.8643894,0.25572526,-1.0866951,0.28881264,3.642935,-0.77284867,-2.7081661
1359,1715847739.8654678,0.2264838,-1.1041543,-0.19119874,3.6248255,-0.7835013,-2.4823303
1360,1715847739.8666263,0.2264838,-1.1041543,-0.19119874,3.6248255,-0.7835013,-2.4823303
1361,1715847739.8677566,0.2264838,-1.1041543,-0.19119874,3.6248255,-0.7835013,-2.4823303
1362,1715847739.8688886,0.2264838,-1.1041543,-0.19119874,3.6248255,-0.7835013,-2.4823303
1363,1715847739.8700228,0.2264838,-1.1041543,-0.19119874,3.6248255,-0.7835013,-2.4823303
1364,1715847739.871153,0.2264838,-1.1041543,-0.19119874,3.6248255,-0.7835013,-2.4823303
1365,1715847739.8722384,0.2264838,-1.1041543,-0.19119874,3.6248255,-0.7835013,-2.4823303
1366,1715847739.8733199,0.2264838,-1.1041543,-0.19119874,3.4362738,-0.56086123,-2.2532988
1367,1715847739.8744476,0.2264838,-1.1041543,-0.19119874,3.4362738,-0.56086123,-2.2532988
1368,1715847739.8755808,0.2264838,-1.1041543,-0.19119874,3.4362738,-0.56086123,-2.2532988
1369,1715847739.8767295,0.2264838,-1.1041543,-0.19119874,3.4362738,-0.56086123,-2.2532988
1370,1715847739.8778937,0.2435159,-1.0973783,-0.505529,3.4362738,-0.56086123,-2.2532988
1371,1715847739.8789942,0.2435159,-1.0973783,-0.505529,3.4362738,-0.56086123,-2.2532988
1372,1715847739.880124,0.2435159,-1.0973783,-0.505529,3.4362738,-0.56086123,-2.2532988
1373,1715847739.8812568,0.2435159,-1.0973783,-0.505529,3.4362738,-0.56086123,-2.2532988
1374,1715847739.8823905,0.2435159,-1.0973783,-0.505529,3.4362738,-0.56086123,-2.2532988
1375,1715847739.8834724,0.21769308,-1.052753,-0.78884745,3.0474527,-0.18482322,-2.053029
1376,1715847739.8845851,0.21769308,-1.052753,-0.78884745,3.0474527,-0.18482322,-2.053029
1377,1715847739.8857112,0.21769308,-1.052753,-0.78884745,3.0474527,-0.18482322,-2.053029
1378,1715847739.8868432,0.21769308,-1.052753,-0.78884745,3.0474527,-0.18482322,-2.053029
1379,1715847739.887975,0.21769308,-1.052753,-0.78884745,3.0474527,-0.18482322,-2.053029
1380,1715847739.8891325,0.21769308,-1.052753,-0.78884745,3.0474527,-0.18482322,-2.053029
1381,1715847739.8902602,0.21769308,-1.052753,-0.78884745,3.0474527,-0.18482322,-2.053029
1382,1715847739.8913453,0.21769308,-1.052753,-0.78884745,3.0474527,-0.18482322,-2.053029
1383,1715847739.8924665,0.21769308,-1.052753,-0.78884745,3.0474527,-0.18482322,-2.053029
1384,1715847739.8935874,0.21769308,-1.052753,-0.78884745,3.0474527,-0.18482322,-2.053029
1385,1715847739.894709,0.21769308,-1.052753,-0.78884745,3.0474527,-0.18482322,-2.053029
1386,1715847739.8958302,0.21769308,-1.052753,-0.78884745,3.0474527,-0.18482322,-2.053029
1387,1715847739.8969202,0.21769308,-1.052753,-0.78884745,3.0474527,-0.18482322,-2.053029
1388,1715847739.898056,0.21769308,-1.052753,-0.78884745,3.0474527,-0.18482322,-2.053029
1389,1715847739.8991766,0.21769308,-1.052753,-0.78884745,3.0474527,-0.18482322,-2.053029
